record_id,age,gender,country,num_platforms,self_reported_weekly_play,plays_xbox,plays_steam,plays_nintendo,plays_ios,plays_android,plays_playstation,intake_life_sat,intake_affective_valence,intake_wemwbs_1,intake_wemwbs_2,intake_wemwbs_3,intake_wemwbs_4,intake_wemwbs_5,intake_wemwbs_6,intake_wemwbs_7,gdt_total,promis_total,wemwbs_total,bangs_total,telem_nocturnal_sessions,telem_activity_count,telem_total_sessions,bw_gdt_1,bw_gdt_2,bw_gdt_3,bw_gdt_4,bw_promis_1,bw_promis_2,bw_promis_3,bw_promis_4,bw_promis_5,bw_promis_6,bw_promis_7,bw_promis_8,bw_wemwbs_1,bw_wemwbs_2,bw_wemwbs_3,bw_wemwbs_4,bw_wemwbs_5,bw_wemwbs_6,bw_wemwbs_7,android_days_with_data,android_mean_daily_minutes,android_total_minutes,bw_affective_valence,bw_bangs_1,bw_bangs_10,bw_bangs_11,bw_bangs_12,bw_bangs_13,bw_bangs_14,bw_bangs_15,bw_bangs_16,bw_bangs_17,bw_bangs_18,bw_bangs_2,bw_bangs_3,bw_bangs_4,bw_bangs_5,bw_bangs_6,bw_bangs_7,bw_bangs_8,bw_bangs_9,bw_bfi_2_xs_1,bw_bfi_2_xs_10,bw_bfi_2_xs_11,bw_bfi_2_xs_12,bw_bfi_2_xs_13,bw_bfi_2_xs_14,bw_bfi_2_xs_15,bw_bfi_2_xs_2,bw_bfi_2_xs_3,bw_bfi_2_xs_4,bw_bfi_2_xs_5,bw_bfi_2_xs_6,bw_bfi_2_xs_7,bw_bfi_2_xs_8,bw_bfi_2_xs_9,bw_eps_afternoon,bw_eps_car,bw_eps_lunch,bw_eps_passenger,bw_eps_public,bw_eps_reading,bw_eps_talking,bw_eps_tv,bw_gaming_value_cognitive,bw_gaming_value_emotion,bw_gaming_value_routines,bw_gaming_value_social,bw_gaming_value_work,bw_life_sat,bw_mctq_fd_sleep_latency_minutes,bw_mctq_wd_sleep_latency_minutes,bw_mctq_workdays_per_week,bw_num_waves,bw_played_any_games,bw_positives,bw_problematic_play,bw_psqi_overall_quality,bw_psqi_sleep_latency_min,bw_psqi_sleepdur_hours,bw_self_reported_biweekly_play,bw_self_reported_daily_play,bw_self_reported_weekly_play,bw_survey_duration,bw_trojan_1,bw_trojan_10,bw_trojan_11,bw_trojan_12,bw_trojan_13,bw_trojan_14,bw_trojan_15,bw_trojan_2,bw_trojan_3,bw_trojan_4,bw_trojan_5,bw_trojan_6,bw_trojan_7,bw_trojan_8,bw_trojan_9,cog_mean_accuracy,cog_mean_rt,cog_num_tasks,cog_num_trials,daily_num_responses,daily_played_days,daily_stress_days,has_android,has_any_telemetry,has_biweekly,has_cognitive,has_daily,has_ios,has_nintendo,has_steam,has_timeuse,has_xbox,ios_days_with_data,ios_mean_daily_minutes,ios_total_minutes,nintendo_max_session_min,nintendo_mean_session_min,nintendo_nocturnal_sessions,nintendo_total_duration_min,nintendo_total_sessions,nintendo_unique_games,num_telemetry_platforms,steam_link_events,steam_linked,steam_owned_games_count,steam_owned_total_playtime,steam_playtime_2weeks_max,steam_playtime_forever_max,steam_total_records,steam_unique_games,timeuse_gaming_entries,timeuse_num_days,timeuse_num_entries,xbox_max_session_min,xbox_mean_session_min,xbox_nocturnal_sessions,xbox_total_duration_min,xbox_total_sessions,xbox_unique_games
1,35,Man,US,3,,,,,,,,,,,,,,,,,0,8,7,18,0,0,0,0,0,0,0,1,1,1,1,1,1,1,1,1,1,1,1,1,1,1,,,,2,1,1,1,1,1,1,1,1,1,1,1,1,1,1,1,1,1,1,,,,,,,,,,,,,,,,,,,,,,,,-3,-3,-3,-3,-3,1,7,7,,6,,,,,,,61,61,61,235,1,1,1,1,1,1,1,1,1,1,1,1,1,1,1,0.35714285714285715,404.7857142857143,1,14,3,0,0,0,0,1,1,1,0,0,0,1,0,,,,,,,,,,0,,,,,,,,,2,2,4,,,,,,
2,25,Woman,UK,1,,,,,,,,,,,,,,,,,,,,,72,316,316,,,,,,,,,,,,,,,,,,,,,,,,,,,,,,,,,,,,,,,,,,,,,,,,,,,,,,,,,,,,,,,,,,,,,,,,,,,,,,,,,,,,,,,,,,,,,,,,,,,,,,,,,,,0,1,0,0,0,0,1,0,0,0,,,,243.983,26.237,72,8290.817,316,2,1,,,,,,,,,,,,,,,,,
3,20,Man,UK,4,,,,,,,,,,,,,,,,,,,,,149,866,866,,,,,,,,,,,,,,,,,,,,,,,,,,,,,,,,,,,,,,,,,,,,,,,,,,,,,,,,,,,,,,,,,,,,,,,,,,,,,,,,,,,,,,,,,,,,,,,,,,,,,,,,,,,0,1,0,0,0,0,1,0,0,0,,,,197.067,12.212,149,10575.483,866,6,1,3,1,,,,,,,,,,,,,,,
4,20,Man,UK,1,,,,,,,,,,,,,,,,,,,,,49,219,219,,,,,,,,,,,,,,,,,,,,,,,,,,,,,,,,,,,,,,,,,,,,,,,,,,,,,,,,,,,,,,,,,,,,,,,,,,,,,,,,,,,,,,,,,,,,,,,,,,,,,,,,,,,0,1,0,0,0,0,1,0,0,0,,,,202.5,15.718,49,3442.2,219,5,1,,,,,,,,,,,,,,,,,
5,40,Man,UK,2,,,,,,,,,,,,,,,,,,,,,120,991,991,,,,,,,,,,,,,,,,,,,,,,,,,,,,,,,,,,,,,,,,,,,,,,,,,,,,,,,,,,,,,,,,,,,,,,,,,,,,,,,,,,,,,,,,,,,,,,,,,,,,,,,,,,,0,1,0,0,0,0,1,0,0,0,,,,76.383,8.545,120,8468.383,991,7,1,,,,,,,,,,,,,,,,,
6,40,Man,UK,3,,,,,,,,,,,,,,,,,,,,,1790,4804,4804,,,,,,,,,,,,,,,,,,,,,,,,,,,,,,,,,,,,,,,,,,,,,,,,,,,,,,,,,,,,,,,,,,,,,,,,,,,,,,,,,,,,,,,,,,,,,,,,,,,,,,,,,,,0,1,0,0,0,0,1,0,0,0,,,,247.033,9.298,1790,44665.95,4804,17,1,,,,,,,,,,,,,,,,,
7,25,Woman,UK,3,,,,,,,,,,,,,,,,,,,,,495,2458,2458,,,,,,,,,,,,,,,,,,,,,,,,,,,,,,,,,,,,,,,,,,,,,,,,,,,,,,,,,,,,,,,,,,,,,,,,,,,,,,,,,,,,,,,,,,,,,,,,,,,,,,,,,,,0,1,0,0,0,0,1,1,0,0,,,,116.717,7.723,495,18302.933,2370,5,2,1,1,79,91861,1659,13773,88,10,,,,,,,,,
8,45,Woman,UK,3,,,,,,,,,,,,,,,,,,,,,70,439,439,,,,,,,,,,,,,,,,,,,,,,,,,,,,,,,,,,,,,,,,,,,,,,,,,,,,,,,,,,,,,,,,,,,,,,,,,,,,,,,,,,,,,,,,,,,,,,,,,,,,,,,,,,,0,1,0,0,0,0,1,0,0,0,,,,170.417,32.259,70,14161.583,439,5,1,,,,,,,,,,,,,,,,,
9,25,Man,US,5,,,,,,,,,,,,,,,,,,,,,286,612,612,,,,,,,,,,,,,,,,,,,,,,,,,,,,,,,,,,,,,,,,,,,,,,,,,,,,,,,,,,,,,,,,,,,,,,,,,,,,,,,,,,,,,,,,,,,,,,,,,,,,,,,,3,0,0,0,1,0,0,1,0,1,0,1,0,,,,380.9,45.761,286,28005.75,612,13,1,1,1,14,34358,,,,,0,1,39,,,,,,
10,20,Man,US,4,,,,,,,,,,,,,,,,,,,,,11,20,20,,,,,,,,,,,,,,,,,,,,,,,,,,,,,,,,,,,,,,,,,,,,,,,,,,,,,,,,,,,,,,,,,,,,,,,,,,,,,,,,,,,,,,,,,,,,,,,,,,,,,,,,,,,0,1,0,0,0,0,1,0,0,0,,,,88.583,22.25,11,445,20,2,1,,,,,,,,,,,,,,,,,
11,25,Man,US,3,,,,,,,,,,,,,,,,,9,17,23,69,635,1545,1545,2,3,3,1,2,3,2,1,2,2,3,2,2,4,3,4,4,3,3,,,,70,7,3,1,2,5,7,5,2,1,2,6,6,2,1,1,4,7,7,,,,,,,,,,,,,,,,,,,,,,,,0,0,-2,0,-1,7,45,45,,1,,,,,,,1800,420,900,331,,,,,,,,,,,,,,,,,,,,3,0,0,0,1,1,0,1,0,1,0,1,0,,,,496.217,24.158,635,37324.117,1545,3,1,,,,,,,,,1,1,2,,,,,,
12,30,Woman,US,2,,,,,,,,,,,,,,,,,,,,,0,104,104,,,,,,,,,,,,,,,,,,,,,,,,,,,,,,,,,,,,,,,,,,,,,,,,,,,,,,,,,,,,,,,,,,,,,,,,,,,,,,,,,,,,,,,,,,,,,,,,,,,,,,,,2,0,0,0,1,0,0,1,0,0,1,0,0,,,,,,,,,,1,1,1,6,34770,1502,21707,104,2,,,,,,,,,
13,30,Man,US,2,,,,,,,,,,,,,,,,,,,,,0,0,0,,,,,,,,,,,,,,,,,,,,,,,,,,,,,,,,,,,,,,,,,,,,,,,,,,,,,,,,,,,,,,,,,,,,,,,,,,1,,,,,,,,,,12,,,,,,,,,,,,,,,,,,,,2,0,0,0,0,0,0,1,0,0,0,1,0,,,,,,,,,,0,,,,,,,,,4,1,20,,,,,,
14,25,Woman,US,3,,,,,,,,,,,,,,,,,,,,,0,279,279,,,,,,,,,,,,,,,,,,,,,,,,,,,,,,,,,,,,,,,,,,,,,,,,,,,,,,,,,,,,,,,,,,,,,,,,,,,,,,,,,,,,,,,,,,,,,,,,,,,,,,,,2,0,0,0,1,0,0,1,0,0,1,1,0,,,,,,,,,,1,3,1,25,24502,5572,15049,279,3,2,1,7,,,,,,
15,25,Man,US,1,,,,,,,,,,,,,,,,,,,,,472,738,738,,,,,,,,,,,,,,,,,,,,,,,,,,,,,,,,,,,,,,,,,,,,,,,,,,,,,,,,,,,,,,,,,,,,,,,,,,,,,,,,,,,,,,,,,,,,,,,,,,,,,,,,1,0,0,0,1,0,0,1,0,1,0,1,0,,,,240.367,18.467,472,13628.9,738,3,1,,,,,,,,,1,1,9,,,,,,
16,30,Woman,US,2,,,,,,,,,,,,,,,,,,,,,0,0,0,,,,,,,,,,,,,,,,,,,,,,,,,,,,,,,,,,,,,,,,,,,,,,,,,,,,,,,,,,,,,,,,,,,,,,,,,,,,,,,,,,,,,,,,,,,,,,,,,,,,,,,,5,0,0,0,0,0,0,1,0,0,0,1,0,,,,,,,,,,0,,,,,,,,,0,1,3,,,,,,
17,25,Man,US,1,,,,,,,,,,,,,,,,,,,,,0,0,0,,,,,,,,,,,,,,,,,,,,,,,,,,,,,,,,,,,,,,,,,,,,,,,,,,,,,,,,,,,,,,,,,,,,,,,,,,,,,,,,,,,,,,,,,,,,,,,,,,,,,,,,1,0,0,0,0,0,0,1,0,0,0,1,0,,,,,,,,,,0,,,,,,,,,36,1,144,,,,,,
18,25,Woman,US,2,,,,,,,,,,,,,,,,,,,,,0,0,0,,,,,,,,,,,,,,,,,,,,,,,,,,,,,,,,,,,,,,,,,,,,,,,,,,,,,,,,,,,,,,,,,,,,,,,,,,1,,,,,,,,,,19,,,,,,,,,,,,,,,,,,,,2,0,0,0,0,0,0,1,0,0,0,1,0,,,,,,,,,,0,,,,,,,,,1,1,5,,,,,,
19,25,Woman,US,3,,,,,,,,,,,,,,,,,,,,,0,269,269,,,,,,,,,,,,,,,,,,,,,,,,,,,,,,,,,,,,,,,,,,,,,,,,,,,,,,,,,,,,,,,,,,,,,,,,,,,,,,,,,,,,,,,,,,,,,,,,,,,,,,,,5,0,0,0,1,0,0,1,0,0,1,1,0,,,,,,,,,,1,1,1,57,158064,4693,6394,269,7,6,3,40,,,,,,
20,30,Woman,US,3,,,,,,,,,,,,,,,,,,,,,119,231,231,,,,,,,,,,,,,,,,,,,,,,,,,,,,,,,,,,,,,,,,,,,,,,,,,,,,,,,,,,,,,,,,,,,,,,,,,,,,,,,,,,,,,,,,,,,,,,,,,,,,,,,,2,0,0,0,1,0,0,1,0,1,0,1,0,,,,305.933,54.23,119,12527.133,231,8,1,,,,,,,,,1,1,10,,,,,,
21,25,Man,US,5,,,,,,,,,,,,,,,,,,,,,432,629,629,,,,,,,,,,,,,,,,,,,,,,,,,,,,,,,,,,,,,,,,,,,,,,,,,,,,,,,,,,,,,,,,,0,0,0,0,0,,,,,1,,,,,,,,,,25,,,,,,,,,,,,,,,,,,,,3,0,0,0,1,0,0,1,0,1,1,1,0,,,,203.067,16.931,432,8922.433,527,9,2,1,1,89,85364,1871,53975,102,7,0,1,8,,,,,,
22,20,Woman,US,4,,,,,,,,,,,,,,,,,,,,,0,9,9,,,,,,,,,,,,,,,,,,,,,,,,,,,,,,,,,,,,,,,,,,,,,,,,,,,,,,,,,,,,,,,,,,,,,,,,,,,,,,,,,,,,,,,,,,,,,,,,,,,,,,,,2,0,0,0,1,0,0,1,0,0,1,0,0,,,,,,,,,,1,62,1,8,12457,154,777,9,3,,,,,,,,,
23,25,Man,US,3,,,,,,,,,,,,,,,,,,,,,0,0,0,,,,,,,,,,,,,,,,,,,,,,,,,,,,,,,,,,,,,,,,,,,,,,,,,,,,,,,,,,,,,,,,,,,,,,,,,,,,,,,,,,,,,,,,,,,,,,,,,,,,,,,,2,0,0,0,0,0,0,1,0,0,0,0,0,,,,,,,,,,0,,,,,,,,,,,,,,,,,
24,25,Man,US,2,,,,,,,,,,,,,,,,,,27,24,58,0,0,0,,,,,3,4,3,4,2,4,4,3,2,2,4,3,5,5,3,,,,74,7,1,1,1,5,4,1,1,1,1,7,7,1,1,1,4,7,7,,,,,,,,,,,,,,,,,,,,,,,,0,3,3,0,0,5,,,,3,,,,,15,7,1440,120,840,606,,,,,,,,,,,,,,,,,,,,28,0,0,0,0,0,0,1,0,0,0,1,0,,,,,,,,,,0,,,,,,,,,27,25,243,,,,,,
25,25,Woman,US,6,,,,,,,,,,,,,,,,,4,12,23,50,68,190,190,0,1,1,2,1,1,1,1,2,3,1,2,2,4,3,4,3,4,3,,,,68,4,2,3,1,4,1,4,1,1,1,3,2,5,1,1,6,5,5,,,,,,,,,,,,,,,,,,,,,,,,2,1,-1,2,-1,6,,,,1,,,,,,,,,,306,,,,,,,,,,,,,,,,,,,,3,0,0,0,1,1,0,1,0,1,0,1,0,,,,144.083,22.583,68,4290.833,190,3,1,,,,,,,,,0,1,4,,,,,,
26,25,Man,US,3,,,,,,,,,,,,,,,,,,22,22,75,0,317,317,,,,,3,3,3,2,3,3,2,3,4,3,3,3,3,3,3,,,,79,4,4,5,5,4,4,4,5,4,3,4,5,3,5,4,5,4,3,,,,,,,,,,,,,,,,,,,,,,,,0,1,0,-1,0,6,,,,3,,,,,15,8,600,60,300,206,,,,,,,,,,,,,,,,,,,,27,0,0,0,1,0,0,1,0,0,1,1,0,,,,,,,,,,1,2,1,393,578025,2826,41358,317,40,29,22,171,,,,,,
27,30,Man,US,4,,,,,,,,,,,,,,,,,,,,,0,245,245,,,,,,,,,,,,,,,,,,,,,,,,,,,,,,,,,,,,,,,,,,,,,,,,,,,,,,,,,,,,,,,,,,,,,,,,,,,,,,,,,,,,,,,,,,,,,,,,,,,,,,,,4,0,0,0,1,0,0,1,0,0,1,1,0,,,,,,,,,,1,1,1,3,237667,2463,193441,245,6,1,2,9,,,,,,
28,20,Woman,US,4,,,,,,,,,,,,,,,,,,,,,76,213,213,,,,,,,,,,,,,,,,,,,,,,,,,,,,,,,,,,,,,,,,,,,,,,,,,,,,,,,,,,,,,,,,,,,,,,,,,,,,,,,,,,,,,,,,,,,,,,,,,,,,,,,,,,,0,1,0,0,0,0,1,0,0,0,,,,283.233,18.613,76,3964.55,213,5,1,,,,,,,,,,,,,,,,,
29,25,Man,US,5,,,,,,,,,,,,,,,,,,,,,778,1788,1788,,,,,,,,,,,,,,,,,,,,,,,,,,,,,,,,,,,,,,,,,,,,,,,,,,,,,,,,,,,,,,,,,,,,,,,,,,,,,,,,,,,,,,,,,,,,,,,,,,,,,,,,3,0,0,0,1,0,0,1,0,1,0,0,0,,,,379.2,15.389,778,27515.983,1788,3,1,,,,,,,,,,,,,,,,,
30,30,Man,US,3,,,,,,,,,,,,,,,,,4,15,7,,0,0,0,1,1,1,1,2,2,2,2,2,2,1,2,1,1,1,1,1,1,1,,,,57,,,,,,,,,,,,,,,,,,,,,,,,,,,,,,,,,,,,,,,,,,-2,-2,-2,-2,-2,6,11,12,2,1,,,,,,,,,,171,,,,,,,,,,,,,,,,,,,,5,0,0,0,0,1,0,1,0,0,0,1,0,,,,,,,,,,0,1,1,14,622,,,,,8,3,161,,,,,,
31,25,Man,US,1,,,,,,,,,,,,,,,,,,,,,0,0,0,,,,,,,,,,,,,,,,,,,,,,,,,,,,,,,,,,,,,,,,,,,,,,,,,,,,,,,,,,,,,,,,,,,,,,,,,,,,,,,,,,,,,,,,,,,,,,,,,,,,,,,,1,0,0,0,0,0,0,1,0,0,0,0,0,,,,,,,,,,0,,,,,,,,,,,,,,,,,
32,20,Woman,US,2,,,,,,,,,,,,,,,,,,,,,0,0,0,,,,,,,,,,,,,,,,,,,,,,,57,,,,,,,,,,,,,,,,,,,,,,,,,,,,,,,,,,,,,,,,,,,,,,,,,,,2,,,,,60,6,,,,232,,,,,,,,,,,,,,,,,,,,22,0,0,0,0,0,0,1,0,0,0,1,0,,,,,,,,,,0,,,,,,,,,19,18,166,,,,,,
33,25,Woman,US,5,,,,,,,,,,,,,,,,,,,,,32,93,93,,,,,,,,,,,,,,,,,,,,,,,,,,,,,,,,,,,,,,,,,,,,,,,,,,,,,,,,,,,,,,,,,,,,,,,,,,,,,,,,,,,,,,,,,,,,,,,,,,,,,,,,,,,0,1,0,0,0,0,1,0,0,0,,,,101.133,16.118,32,1498.933,93,6,1,,,,,,,,,,,,,,,,,
34,25,Man,US,3,,,,,,,,,,,,,,,,,,,,,0,0,0,,,,,,,,,,,,,,,,,,,,,,,,,,,,,,,,,,,,,,,,,,,,,,,,,,,,,,,,,,,,,,,,,,,,,,,,,,1,,,,,,,,,,40,,,,,,,,,,,,,,,,,,,,4,0,0,0,0,0,0,1,0,0,0,1,0,,,,,,,,,,0,,,,,,,,,2,2,18,,,,,,
35,20,Man,US,5,,,,,,,,,,,,,,,,,,,,,136,236,236,,,,,,,,,,,,,,,,,,,,,,,,,,,,,,,,,,,,,,,,,,,,,,,,,,,,,,,,,,,,,,,,,,,,,,,,,,,,,,,,,,,,,,,,,,,,,,,,,,,,,,,,5,0,0,0,1,0,0,1,0,1,0,1,0,,,,143.05,11.74,136,2770.633,236,7,1,,,,,,,,,1,2,15,,,,,,
36,30,Woman,US,5,,,,,,,,,,,,,,,,,15,35,31,111,93,165,165,4,3,4,4,5,4,5,4,3,5,4,5,4,5,4,5,4,5,4,,,,95,5,5,6,6,7,7,6,6,6,6,5,7,7,5,7,7,7,6,,,,,,,,,,,,,,,,,,,,,,,,1,2,2,3,3,10,15,15,5,1,,,,,,,600,60,300,2038,,,,,,,,,,,,,,,,,,,,10,0,0,0,1,1,0,1,0,1,0,1,0,,,,71.017,10.133,93,1671.9,165,5,1,,,,,,,,,23,4,166,,,,,,
37,25,Woman,US,3,,,,,,,,,,,,,,,,,,21,25,58,4,424,424,,,,,3,2,2,3,3,3,3,2,3,3,4,2,5,4,4,,,,90,7,1,1,1,4,4,4,1,1,1,7,7,1,1,1,4,7,5,,,,,,,,,,,,,,,,,,,,,,,,0,2,0,0,0,5,,,,1,,,,,,,,,,198,2,4,3,5,5,4,3,1,1,4,3,4,3,4,3,,,,,21,0,0,0,1,0,0,1,0,1,1,1,0,,,,32.017,11.746,4,105.717,9,1,2,1,1,154,193744,2276,13943,415,33,14,16,111,,,,,,
38,20,Man,US,3,,,,,,,,,,,,,,,,,,21,26,62,1,283,283,,,,,1,1,3,4,1,4,4,3,2,3,4,3,5,5,4,,,,78,7,1,1,1,4,4,4,1,1,1,7,7,1,1,1,6,7,7,,,,,,,,,,,,,,,,,,,,,,,,2,3,3,0,0,5,,,,1,,,,,,,2400,120,1200,222,,,,,,,,,,,,,,,,,,,,6,0,0,0,1,0,0,1,0,1,1,1,0,,,,0.5,0.5,1,0.5,1,1,2,1,1,6479,356590,1747,6575,282,44,21,4,175,,,,,,
39,25,Woman,US,3,,,,,,,,,,,,,,,,,,25,26,87,0,0,0,,,,,3,3,3,4,2,4,3,3,4,3,4,3,4,4,4,,,,51,6,4,5,5,5,5,5,4,3,5,5,5,5,4,6,5,5,5,,,,,,,,,,,,,,,,,,,,,,,,0,-2,-1,-2,0,5,,,,2,,,,,,,2100,360,1200,313,,,,,,,,,,,,,,,,,,,,7,0,0,0,0,0,0,1,0,0,0,1,0,,,,,,,,,,0,,,,,,,,,4,4,32,,,,,,
40,30,Woman,US,2,,,,,,,,,,,,,,,,,,39,18,73,0,0,0,,,,,5,5,5,4,5,5,5,5,1,2,4,3,5,1,2,,,,0,5,5,4,4,4,5,5,1,1,1,6,7,1,1,3,7,6,7,,,,,,,,,,,,,,,,,,,,,,,,0,0,0,0,0,1,,,,2,,,,,,,3630,200,1822,227,,,,,,,,,,,,,,,,,,,,8,0,0,0,0,0,0,1,0,0,0,1,0,,,,,,,,,,0,,,,,,,,,5,6,51,,,,,,
41,25,Man,US,5,,,,,,,,,,,,,,,,,,,,,0,0,0,,,,,,,,,,,,,,,,,,,,,,,,,,,,,,,,,,,,,,,,,,,,,,,,,,,,,,,,,,,,,,,,,,,,,,,,,,1,,,,,,,,,,70,,,,,,,,,,,,,,,,,,,,8,0,0,0,0,0,0,1,0,0,0,1,0,,,,,,,,,,0,,,,,,,,,10,5,60,,,,,,
42,20,Woman,US,2,,,,,,,,,,,,,,,,,4,20,26,84,15,54,54,1,1,1,1,2,2,2,3,3,3,3,2,3,4,4,4,4,4,3,,,,75,6,4,4,4,4,5,4,5,3,5,6,6,4,2,3,6,6,7,,,,,,,,,,,,,,,,,,,,,,,,1,2,1,2,2,7,30,30,5,1,,,,,,,,150,,1280,,,,,,,,,,,,,,,,,,,,6,0,0,0,1,1,0,1,0,1,0,1,0,,,,45.933,13.109,15,707.867,54,3,1,,,,,,,,,2,4,35,,,,,,
43,25,Woman,US,3,,,,,,,,,,,,,,,,,,,,,0,13,13,,,,,,,,,,,,,,,,,,,,,,,,,,,,,,,,,,,,,,,,,,,,,,,,,,,,,,,,,,,,,,,,,,,,,,,,,,,,,,,,,,,,,,,,,,,,,,,,,,,,,,,,6,0,0,0,1,0,0,1,0,0,1,1,0,,,,,,,,,,1,1,1,17,6888,185,1436,13,5,2,2,13,,,,,,
44,25,Man,US,3,,,,,,,,,,,,,,,,,,17,21,79,0,0,0,,,,,2,3,2,2,2,2,3,1,3,3,3,3,3,3,3,,,,48,5,6,4,4,4,4,3,4,4,5,4,4,4,3,4,6,6,5,,,,,,,,,,,,,,,,,,,,,,,,-1,-1,-1,-2,-2,4,,,,2,,,,,,,180,60,120,118,,,,,,,,,,,,,,,,,,,,6,0,0,0,0,0,0,1,0,0,0,1,0,,,,,,,,,,0,,,,,,,,,2,4,45,,,,,,
45,25,Woman,US,2,,,,,,,,,,,,,,,,,,15,32,94,0,101,101,,,,,2,3,2,2,2,2,1,1,4,5,5,4,4,5,5,,,,100,6,4,4,3,7,6,7,6,4,3,7,7,6,1,7,7,6,3,,,,,,,,,,,,,,,,,,,,,,,,3,3,3,3,3,10,,,,2,,,,,,,6005,330,3005,209,,,,,,,,,,,,,,,,,,,,9,0,0,0,1,0,0,1,0,0,1,1,0,,,,,,,,,,1,1,1,18,25347,1146,17097,101,6,4,5,45,,,,,,
46,20,Man,US,3,,,,,,,,,,,,,,,,,,24,19,60,0,21,21,,,,,4,2,2,3,4,3,3,3,3,2,3,3,2,3,3,,,,62,6,4,2,2,4,4,1,2,1,1,5,6,2,2,3,5,5,5,,,,,,,,,,,,,,,,,,,,,,,,0,0,0,0,0,6,,,,2,,,,,15,9,600,0,300,758,,,,,,,,,,,,,,,,,,,,21,0,0,0,1,0,0,1,0,0,1,1,0,,,,,,,,,,1,1,1,6,22707,206,14055,21,2,18,17,161,,,,,,
47,25,Man,US,2,,,,,,,,,,,,,,,,,,29,20,62,10,76,76,,,,,3,4,4,4,3,3,4,4,2,2,3,4,4,2,3,,,,68,6,1,1,1,7,4,4,1,1,1,5,4,6,1,1,4,7,7,,,,,,,,,,,,,,,,,,,,,,,,1,0,0,0,0,5,,,,2,,,,,15,6,1680,140,945,1037,,,,,,,,,,,,,,,,,,,,26,0,0,0,1,0,0,1,0,1,1,1,0,,,,86.717,9.984,10,289.55,29,4,2,3,1,,,667,25861,47,13,20,18,169,,,,,,
48,25,Woman,US,3,,,,,,,,,,,,,,,,,,13,,,129,236,236,,,,,2,2,1,3,1,1,2,1,,,,,,,,,,,75,,,,,,,,,,,,,,,,,,,,,,,,,,,,,,,,,,,,,,,,,,,,,,,,,,,1,,,,,,,,,,139,,,,,,,,,,,,,,,,,,,,5,0,0,0,1,0,0,1,0,1,0,1,0,,,,270.517,29.332,129,6922.267,236,4,1,,,,,,,,,0,1,6,,,,,,
49,25,Man,US,4,,,,,,,,,,,,,,,,,,,,82,217,617,617,,,,,,,,,,,,,,,,,,,,,,,,6,5,5,5,5,5,6,4,4,3,5,5,4,3,2,5,6,4,,,,,,,,,,,,,,,,,,,,,,,,-1,-2,-2,2,-1,2,,,,2,,,,,,,,185,,191,,,,,,,,,,,,,,,,,,,,10,0,0,0,1,0,0,1,0,1,1,1,0,,,,503.967,37.256,217,12704.2,341,12,2,1,1,71,32761,4785,9820,276,12,8,5,51,,,,,,
50,25,Woman,US,3,,,,,,,,,,,,,,,,,4,,,,0,0,0,0,2,0,2,,,,,,,,,,,,,,,,,,,,,,,,,,,,,,,,,,,,,,,,,,,,,,,,,,,,,,,,,,,,,0,0,-1,-1,0,,,,,1,,,,,,,,,,215,,,,,,,,,,,,,,,,,,,,8,0,0,0,0,1,0,1,0,0,0,1,0,,,,,,,,,,0,,,,,,,,,4,4,58,,,,,,
51,25,Man,US,3,,,,,,,,,,,,,,,,,1,22,19,68,0,0,0,0,1,0,0,2,2,3,4,2,3,4,2,1,2,4,3,4,3,2,,,,66,7,1,1,1,7,5,5,1,1,1,7,7,1,1,1,7,7,7,,,,,,,,,,,,,,,,,,,,,,,,0,0,0,0,0,6,,,,1,,,,,15,7,600,0,300,2013,,,,,,,,,,,,,,,,,,,,9,0,0,0,0,1,0,1,0,0,0,1,0,,,,,,,,,,0,,,,,,,,,4,4,37,,,,,,
52,30,Woman,US,5,,,,,,,,,,,,,,,,,,,,,0,75,75,,,,,,,,,,,,,,,,,,,,,,,,,,,,,,,,,,,,,,,,,,,,,,,,,,,,,,,,,,,,,,,,,3,3,2,0,0,,,,,1,,,,,,,,,,273,,,,,,,,,,,,,,,,,,,,11,0,0,0,1,0,0,1,0,0,1,1,0,,,,,,,,,,1,1,1,29,255420,465,204754,75,5,3,4,22,,,,,,
53,30,Woman,US,3,,,,,,,,,,,,,,,,,,,,,6,93,93,,,,,,,,,,,,,,,,,,,,,,,,,,,,,,,,,,,,,,,,,,,,,,,,,,,,,,,,,,,,,,,,,,,,,,,,,,,,,,,,,,,,,,,,,,,,,,,,,,,,,,,,4,0,0,0,1,0,0,1,0,1,1,1,0,,,,29.033,5.57,6,250.633,45,1,2,1,1,11,61109,894,39687,48,2,1,2,13,,,,,,
54,25,Woman,US,2,,,,,,,,,,,,,,,,,,,,,0,0,0,,,,,,,,,,,,,,,,,,,,,,,,,,,,,,,,,,,,,,,,,,,,,,,,,,,,,,,,,,,,,,,,,,,,,,,,,,1,,,,,,,,,,48,,,,,,,,,,,,,,,,,,,,8,0,0,0,0,0,0,1,0,0,0,1,0,,,,,,,,,,0,,,,,,,,,4,4,43,,,,,,
55,30,Man,US,1,,,,,,,,,,,,,,,,,,,,,0,1257,1257,,,,,,,,,,,,,,,,,,,,,,,,,,,,,,,,,,,,,,,,,,,,,,,,,,,,,,,,,,,,,,,,,,,,,,,,,,,,,,,,,,,,,,,,,,,,,,,,,,,,,,,,2,0,0,0,1,0,0,1,0,0,1,1,0,,,,,,,,,,1,1,1,349,924615,2617,44494,1257,61,1,1,6,,,,,,
56,30,Man,US,1,,,,,,,,,,,,,,,,,,,,,0,0,0,,,,,,,,,,,,,,,,,,,,,,,,,,,,,,,,,,,,,,,,,,,,,,,,,,,,,,,,,,,,,,,,,,,,,,,,,,,,,,,,,,,,,,,,,,,,,,,,,,,,,,,,1,0,0,0,0,0,0,1,0,0,0,1,0,,,,,,,,,,0,,,,,,,,,1,1,13,,,,,,
57,25,Woman,US,3,,,,,,,,,,,,,,,,,,,,,0,14,14,,,,,,,,,,,,,,,,,,,,,,,,,,,,,,,,,,,,,,,,,,,,,,,,,,,,,,,,,,,,,,,,,,,,,,,,,,,,,,,,,,,,,,,,,,,,,,,,,,,,,,,,4,0,0,0,1,0,0,1,0,1,0,1,0,,,,46.35,10.049,0,140.683,14,1,1,,,,,,,,,2,2,13,,,,,,
58,20,Man,US,1,,,,,,,,,,,,,,,,,,,,,0,0,0,,,,,,,,,,,,,,,,,,,,,,,,,,,,,,,,,,,,,,,,,,,,,,,,,,,,,,,,,,,,,,,,,,,,,,,,,,,,,,,,,,,,,,,,,,,,,,,,,,,,,,,,1,0,0,0,0,0,0,1,0,0,0,1,0,,,,,,,,,,0,,,,,,,,,3,1,7,,,,,,
59,20,Man,US,4,,,,,,,,,,,,,,,,,,,,,0,0,0,,,,,,,,,,,,,,,,,,,,,,,,,,,,,,,,,,,,,,,,,,,,,,,,,,,,,,,,,,,,,,,,,,,,,,,,,,,,,,,,,,,,,,,,,,,,,,,,,,,,,,,,2,0,0,0,0,0,0,1,0,0,0,1,0,,,,,,,,,,0,2,1,130,207402,,,,,1,1,3,,,,,,
60,20,Man,US,3,,,,,,,,,,,,,,,,,3,9,33,78,32,66,66,0,1,1,1,1,2,1,1,1,1,1,1,4,5,5,5,5,4,5,,,,100,7,3,3,3,4,4,4,5,1,5,7,7,1,4,1,7,5,7,,,,,,,,,,,,,,,,,,,,,,,,0,0,-1,-1,0,8,5,15,5,1,,,,,,,1800,180,900,1952,,,,,,,,,,,,,,,,,,,,9,0,0,0,1,1,0,1,0,1,0,1,0,,,,107.467,28.788,32,1899.983,66,7,1,,,,,,,,,3,3,12,,,,,,
61,25,Woman,US,1,,,,,,,,,,,,,,,,,,,,,86,133,133,,,,,,,,,,,,,,,,,,,,,,,,,,,,,,,,,,,,,,,,,,,,,,,,,,,,,,,,,,,,,,,,,,,,,,,,,,,,,,,,,,,,,,,,,,,,,,,,,,,,,,,,1,0,0,0,1,0,0,1,0,1,0,1,0,,,,169.967,22.486,86,2990.683,133,6,1,,,,,,,,,1,1,6,,,,,,
62,20,Woman,US,3,,,,,,,,,,,,,,,,,,,,,98,348,348,,,,,,,,,,,,,,,,,,,,,,,,,,,,,,,,,,,,,,,,,,,,,,,,,,,,,,,,,,,,,,,,,,,,,,,,,,,,,,,,,,,,,,,,,,,,,,,,,,,,,,,,3,0,0,0,1,0,0,1,0,1,0,1,0,,,,178.383,31.835,98,11078.7,348,6,1,,,,,,,,,3,2,16,,,,,,
63,20,Man,US,3,,,,,,,,,,,,,,,,,,9,34,66,111,299,299,,,,,1,1,1,2,1,1,1,1,5,5,5,4,5,5,5,,,,100,7,1,1,1,5,5,5,3,1,1,7,7,1,1,1,6,7,6,,,,,,,,,,,,,,,,,,,,,,,,0,0,0,0,0,10,,,,2,,,,,30,8,2040,270,960,316,,,,,,,,,,,,,,,,,,,,28,0,0,0,1,0,0,1,0,1,1,1,0,,,,91.383,11.109,111,3043.767,274,3,2,1,1,24,10150,713,735,25,3,41,18,310,,,,,,
64,20,Man,US,3,,,,,,,,,,,,,,,,,,,,,53,162,162,,,,,,,,,,,,,,,,,,,,,,,,,,,,,,,,,,,,,,,,,,,,,,,,,,,,,,,,,,,,,,,,,,,,,,,,,,,,,,,,,,,,,,,,,,,,,,,,,,,,,,,,2,0,0,0,1,0,0,1,0,1,0,0,0,,,,99.517,14.635,53,2370.917,162,3,1,,,,,,,,,,,,,,,,,
65,30,Man,US,2,,,,,,,,,,,,,,,,,,15,26,65,0,0,0,,,,,2,2,1,2,1,3,2,2,3,4,5,3,3,4,4,,,,90,6,1,5,1,5,4,6,1,1,1,5,6,1,1,1,7,7,6,,,,,,,,,,,,,,,,,,,,,,,,0,0,0,0,0,8,,,,2,,,,,448,6,6720,480,3360,1615,,,,,,,,,,,,,,,,,,,,27,0,0,0,0,0,0,1,0,0,0,1,0,,,,,,,,,,0,,,,,,,,,18,19,197,,,,,,
66,20,Man,US,2,,,,,,,,,,,,,,,,,,32,23,69,0,0,0,,,,,4,4,4,4,4,4,4,4,4,3,2,5,2,3,4,,,,75,7,1,1,1,7,7,4,1,1,1,7,7,1,1,1,7,7,7,,,,,,,,,,,,,,,,,,,,,,,,0,0,0,0,0,10,,,,2,,,,,,,,30,,304,,,,,,,,,,,,,,,,,,,,11,0,0,0,0,0,0,1,0,0,0,1,0,,,,,,,,,,0,,,,,,,,,7,6,60,,,,,,
67,30,Man,US,4,,,,,,,,,,,,,,,,,2,29,23,64,0,198,198,0,2,0,0,3,4,2,5,1,5,5,4,1,3,5,3,5,3,3,,,,39,7,1,1,1,4,4,4,1,1,1,7,7,4,1,1,5,7,7,,,,,,,,,,,,,,,,,,,,,,,,0,2,1,0,0,4,15,15,5,1,,,,,,,1680,0,120,690,,,,,,,,,,,,,,,,,,,,11,0,0,0,1,1,0,1,0,0,1,1,0,,,,,,,,,,1,1,1,28,29644,2296,23465,198,7,2,3,161,,,,,,
68,20,Woman,US,1,,,,,,,,,,,,,,,,,,,,,0,0,0,,,,,,,,,,,,,,,,,,,,,,,,,,,,,,,,,,,,,,,,,,,,,,,,,,,,,,,,,,,,,,,,,,,,,,,,,,,,,,,,,,,,,,,,,,,,,,,,,,,,,,,,1,0,0,0,0,0,0,1,0,0,0,1,0,,,,,,,,,,0,,,,,,,,,1,1,9,,,,,,
69,25,Man,US,1,,,,,,,,,,,,,,,,,,,,,0,0,0,,,,,,,,,,,,,,,,,,,,,,,,,,,,,,,,,,,,,,,,,,,,,,,,,,,,,,,,,,,,,,,,,,,,,,,,,,,,,,,,,,,,,,,,,,,,,,,,,,,,,,,,1,0,0,0,0,0,0,1,0,0,0,1,0,,,,,,,,,,0,,,,,,,,,1,1,7,,,,,,
70,30,Woman,US,2,,,,,,,,,,,,,,,,,,13,23,97,934,1540,1540,,,,,1,2,2,1,1,1,2,3,3,4,2,3,3,4,4,,,,96,5,5,1,7,7,7,6,4,7,7,3,7,4,3,5,7,7,5,,,,,,,,,,,,,,,,,,,,,,,,1,-3,0,-2,0,9,,,,2,,,,,,,,,,732,,,,,,,,,,,,,,,,,,,,8,0,0,0,1,0,0,1,0,1,0,1,0,,,,253.5,46.115,934,71016.633,1540,25,1,,,,,,,,,3,5,39,,,,,,
71,20,Man,US,3,,,,,,,,,,,,,,,,,,,21,,338,998,998,,,,,,,,,,,,,3,3,3,3,3,3,3,,,,,,,,,,,,,,,,,,,,,,,,,,,,,,,,,,,,,,,,,,,,,,,,,,,,,,,1,,,,,,,,,,37,,,,,,,,,,,,,,,,,,,,10,0,0,0,1,0,0,1,0,1,0,1,0,,,,150.6,18.331,338,18294.533,998,26,1,,,,,,,,,4,5,55,,,,,,
72,25,Man,US,4,,,,,,,,,,,,,,,,,,,,,0,0,0,,,,,,,,,,,,,,,,,,,,,,,,,,,,,,,,,,,,,,,,,,,,,,,,,,,,,,,,,,,,,,,,,,,,,,,,,,,,,,,,,,,,,,,,,,,,,,,,,,,,,,,,3,0,0,0,0,0,0,1,0,0,0,1,0,,,,,,,,,,0,,,,,,,,,3,1,9,,,,,,
73,25,Woman,US,3,,,,,,,,,,,,,,,,,,,,,7,58,58,,,,,,,,,,,,,,,,,,,,,,,,,,,,,,,,,,,,,,,,,,,,,,,,,,,,,,,,,,,,,,,,,,,,,,,,,,,,,,,,,,,,,,,,,,,,,,,,,,,,,,,,,,,0,1,0,0,0,0,1,0,0,0,,,,137.033,16.612,7,963.483,58,1,1,,,,,,,,,,,,,,,,,
74,20,Woman,US,4,,,,,,,,,,,,,,,,,,24,24,75,1725,3729,3729,,,,,3,3,3,3,3,3,3,3,4,3,3,4,4,3,3,,,,76,5,4,4,4,5,6,6,2,3,2,5,6,3,2,2,5,5,6,,,,,,,,,,,,,,,,,,,,,,,,0,0,0,0,0,8,,,,2,,,,,30,8,840,240,480,624,,,,,,,,,,,,,,,,,,,,27,0,0,0,1,0,0,1,0,1,1,1,0,,,,290.95,25.205,1725,88571.7,3514,13,2,1,1,2,79482,1858,88315,215,1,22,20,188,,,,,,
75,25,Man,US,5,,,,,,,,,,,,,,,,,,,,,117,751,751,,,,,,,,,,,,,,,,,,,,,,,,,,,,,,,,,,,,,,,,,,,,,,,,,,,,,,,,,,,,,,,,,,,,,,,,,,,,,,,,,,,,,,,,,,,,,,,,,,,,,,,,3,0,0,0,1,0,0,1,0,1,1,1,0,,,,71.5,6.962,117,2033.033,292,13,2,1,1,527,159022,2376,25086,459,87,1,2,14,,,,,,
76,25,Woman,US,3,,,,,,,,,,,,,,,,,1,23,19,60,0,0,0,0,1,0,0,3,3,2,3,3,3,3,3,2,2,3,3,2,3,4,,,,93,6,3,3,4,4,1,2,1,1,1,5,6,2,2,2,6,5,6,,,,,,,,,,,,,,,,,,,,,,,,,,,,,,,,,1,,,,,,,1680,120,840,2294,,,,,,,,,,,,,,,,,,,,8,0,0,0,0,1,0,1,0,0,0,1,0,,,,,,,,,,0,,,,,,,,,2,4,37,,,,,,
77,20,Man,US,3,,,,,,,,,,,,,,,,,5,17,25,55,0,55,55,1,2,2,0,2,2,2,2,2,3,2,2,4,4,4,4,3,3,3,,,,60,5,1,2,2,4,1,2,1,1,1,5,5,5,2,2,5,5,6,,,,,,,,,,,,,,,,,,,,,,,,0,1,1,0,0,6,,,,1,,,,,45,11,1440,360,720,418,,,,,,,,,,,,,,,,,,,,8,0,0,0,1,1,0,1,0,0,1,1,0,,,,,,,,,,1,1,1,26,22848,826,6300,55,10,4,4,28,,,,,,
78,25,Man,US,3,,,,,,,,,,,,,,,,,0,21,19,68,468,588,588,0,0,0,0,3,2,2,3,2,3,3,3,2,2,4,3,2,3,3,,,,89,5,3,4,2,5,5,4,2,1,1,5,6,2,4,3,6,5,5,,,,,,,,,,,,,,,,,,,,,,,,0,0,0,0,0,7,10,10,7,1,,,,,,,1680,120,840,737,,,,,,,,,,,,,,,,,,,,7,0,0,0,1,1,0,1,0,1,0,1,0,,,,152.517,14.469,468,8507.867,588,21,1,,,,,,,,,7,4,40,,,,,,
79,25,Man,US,2,,,,,,,,,,,,,,,,,,9,25,55,0,174,174,,,,,1,1,1,1,1,1,2,1,4,2,3,4,4,4,4,,,,76,3,2,1,4,2,3,3,1,3,2,5,3,3,3,3,3,5,6,,,,,,,,,,,,,,,,,,,,,,,,1,1,-1,0,0,5,,,,2,,,,,20,7,0,30,140,506,,,,,,,,,,,,,,,,,,,,27,0,0,0,1,0,0,1,0,0,1,1,0,,,,,,,,,,1,1,1,111,859210,2910,544679,174,7,23,18,120,,,,,,
80,30,Man,US,3,,,,,,,,,,,,,,,,,2,27,29,72,0,106,106,0,1,1,0,3,3,3,4,3,4,4,3,3,4,5,5,5,3,4,,,,80,7,1,1,1,7,7,7,1,1,1,7,7,1,1,1,7,7,7,,,,,,,,,,,,,,,,,,,,,,,,2,1,2,3,0,7,,,,1,,,,,5,8,14400,480,10800,608,,,,,,,,,,,,,,,,,,,,11,0,0,0,1,1,0,1,0,0,1,1,0,,,,,,,,,,1,1,1,219,401498,1419,110150,106,8,3,5,32,,,,,,
81,25,Man,US,1,,,,,,,,,,,,,,,,,,,,,0,0,0,,,,,,,,,,,,,,,,,,,,,,,,,,,,,,,,,,,,,,,,,,,,,,,,,,,,,,,,,,,,,,,,,,,,,,,,,,,,,,,,,,,,,,,,,,,,,,,,,,,,,,,,1,0,0,0,0,0,0,1,0,0,0,1,0,,,,,,,,,,0,,,,,,,,,1,1,3,,,,,,
82,20,Woman,US,2,,,,,,,,,,,,,,,,,7,16,21,82,0,5,5,2,2,1,2,2,2,2,2,2,2,2,2,3,2,3,3,3,4,3,,,,61,5,6,5,5,4,6,4,2,2,2,6,5,5,2,5,6,6,6,,,,,,,,,,,,,,,,,,,,,,,,2,-1,-1,-1,1,6,10,10,5,1,,,,,,,2100,120,900,885,,,,,,,,,,,,,,,,,,,,9,0,0,0,1,1,0,1,0,0,1,1,0,,,,,,,,,,1,1,1,2,2643,89,2306,5,3,4,3,31,,,,,,
83,30,Woman,US,4,,,,,,,,,,,,,,,,,,,,,189,318,318,,,,,,,,,,,,,,,,,,,,,,,,,,,,,,,,,,,,,,,,,,,,,,,,,,,,,,,,,,,,,,,,,,,,,,,,,,1,,,,,,,,,,66,,,,,,,,,,,,,,,,,,,,2,0,0,0,1,0,0,1,0,1,0,1,0,,,,422.2,42.986,189,13669.433,318,6,1,,,,,,,,,0,1,24,,,,,,
84,30,Man,US,2,,,,,,,,,,,,,,,,,,,,,0,0,0,,,,,,,,,,,,,,,,,,,,,,,,,,,,,,,,,,,,,,,,,,,,,,,,,,,,,,,,,,,,,,,,,,,,,,,,,,1,,,,,,,,,,5,,,,,,,,,,,,,,,,,,,,7,0,0,0,0,0,0,1,0,0,0,1,0,,,,,,,,,,0,,,,,,,,,4,5,60,,,,,,
85,25,Man,US,1,,,,,,,,,,,,,,,,,,,,,0,0,0,,,,,,,,,,,,,,,,,,,,,,,,,,,,,,,,,,,,,,,,,,,,,,,,,,,,,,,,,,,,,,,,,,,,,,,,,,,,,,,,,,,,,,,,,,,,,,,,,,,,,,,,1,0,0,0,0,0,0,1,0,0,0,1,0,,,,,,,,,,0,,,,,,,,,0,1,7,,,,,,
86,25,Man,US,5,,,,,,,,,,,,,,,,,,10,25,,0,13,13,,,,,1,1,1,2,1,1,2,1,3,4,4,3,4,4,3,,,,44,,,,,,,,,,,,,,,,,,,,,,,,,,,,,,,,,,,,,,,,,,0,0,0,0,0,4,,,,1,,,,,,,,,,149,2,3,3,4,4,3,3,2,2,3,3,4,3,3,3,,,,,23,0,0,0,1,0,0,1,0,0,1,1,0,,,,,,,,,,1,1,1,185,13569,157,157,13,8,39,19,308,,,,,,
87,20,Man,US,4,,,,,,,,,,,,,,,,,9,27,17,66,0,0,0,1,4,4,0,3,5,3,4,2,3,4,3,3,3,2,1,3,3,2,,,,43,7,4,4,4,3,4,4,1,1,4,4,5,4,1,1,3,5,7,,,,,,,,,,,,,,,,,,,,,,,,1,3,2,0,0,6,,,,1,,,,,,,725,195,360,349,,,,,,,,,,,,,,,,,,,,11,0,0,0,0,1,0,1,0,0,0,1,0,,,,,,,,,,0,,,,,,,,,5,6,110,,,,,,
88,25,Woman,US,3,,,,,,,,,,,,,,,,,,,,,147,296,296,,,,,,,,,,,,,,,,,,,,,,,,,,,,,,,,,,,,,,,,,,,,,,,,,,,,,,,,,,,,,,,,,,,,,,,,,,1,,,,,,,,,,3967,,,,,,,,,,,,,,,,,,,,8,0,0,0,1,0,0,1,0,1,0,1,0,,,,286.117,11.835,147,3503.2,296,1,1,,,,,,,,,4,4,44,,,,,,
89,25,Woman,US,3,,,,,,,,,,,,,,,,,4,27,21,48,0,326,326,1,1,2,0,3,3,3,4,3,3,4,4,3,3,3,3,4,2,3,,,,42,5,1,1,1,1,1,1,4,1,4,2,2,4,5,1,4,5,5,,,,,,,,,,,,,,,,,,,,,,,,1,0,-1,0,-1,2,,,,1,,,,,40,7,0,0,15,477413,,,,,,,,,,,,,,,,,,,,9,0,0,0,1,1,0,1,0,0,1,1,0,,,,,,,,,,1,1,1,140,304522,5494,37349,326,11,1,5,71,,,,,,
90,25,Man,US,4,,,,,,,,,,,,,,,,,,,,,11,36,36,,,,,,,,,,,,,,,,,,,,,,,89,,,,,,,,,,,,,,,,,,,,,,,,,,,,,,,,,,,,,,,,,,1,2,1,0,1,,,,,1,,,,,,,,,,690,,,,,,,,,,,,,,,,,,,,9,0,0,0,1,0,0,1,0,1,1,1,0,,,,31.083,4.315,11,142.4,33,2,2,1,1,31,17059,34,45,3,2,3,2,12,,,,,,
91,30,Man,US,3,,,,,,,,,,,,,,,,,4,28,21,90,0,68,68,1,1,2,0,4,3,3,4,4,4,3,3,2,4,2,4,3,3,3,,,,45,6,5,2,2,5,5,1,7,7,6,7,7,1,5,3,7,7,7,,,,,,,,,,,,,,,,,,,,,,,,2,-1,-1,1,0,7,,,,1,,,,,15,9,330,5,120,984,,,,,,,,,,,,,,,,,,,,6,0,0,0,1,1,0,1,0,0,1,1,0,,,,,,,,,,1,1,1,186,224175,1088,30274,68,8,5,4,34,,,,,,
92,20,Man,US,3,,,,,,,,,,,,,,,,,,8,20,,0,0,0,,,,,1,1,1,1,1,1,1,1,3,3,3,3,3,3,2,,,,49,,,,,,,,,,,,,,,,,,,,,,,,,,,,,,,,,,,,,,,,,,0,0,0,0,0,4,,,,2,,,,,30,6,,,,172,,,,,,,,,,,,,,,,,,,,24,0,0,0,0,0,0,1,0,0,0,1,0,,,,,,,,,,0,,,,,,,,,39,18,273,,,,,,
93,30,Man,US,2,,,,,,,,,,,,,,,,,,,,,132,258,258,,,,,,,,,,,,,,,,,,,,,,,,,,,,,,,,,,,,,,,,,,,,,,,,,,,,,,,,,,,,,,,,,,,,,,,,,,,,,,,,,,,,,,,,,,,,,,,,,,,,,,,,3,0,0,0,1,0,0,1,0,1,0,1,0,,,,126.05,6.878,132,1774.533,258,6,1,,,,,,,,,2,1,9,,,,,,
94,25,Man,US,3,,,,,,,,,,,,,,,,,9,12,21,,0,50,50,2,3,3,1,2,1,1,1,1,1,3,2,3,2,3,2,4,3,4,,,,50,,,,,,,,,,,,,,,,,,,,,,,,,,,,,,,,,,,,,,,,,,,,,,,,,,,1,,,,,8,7,,,,672,,,,,,,,,,,,,,,,,,,,6,0,0,0,1,1,0,1,0,0,1,1,0,,,,,,,,,,1,1,1,14,33574,1044,16094,50,6,5,4,38,,,,,,
95,25,Man,US,3,,,,,,,,,,,,,,,,,8,,28,87,231,815,815,1,3,2,2,,,,,,,,,5,4,5,4,3,4,3,,,,66,6,3,4,2,5,4,6,3,4,4,7,6,3,5,7,6,5,7,,,,,,,,,,,,,,,,,,,,,,,,1,1,1,2,2,7,,,,1,,,,,,,2400,270,1200,365,,,,,,,,,,,,,,,,,,,,9,0,0,0,1,1,0,1,0,1,0,1,0,,,,284.967,34.195,231,27868.75,815,4,1,1,1,,,,,,,1,2,12,,,,,,
96,30,Woman,US,2,,,,,,,,,,,,,,,,,,,,,794,1522,1522,,,,,,,,,,,,,,,,,,,,,,,,,,,,,,,,,,,,,,,,,,,,,,,,,,,,,,,,,,,,,,,,,,,,,,,,,,,,,,,,,,,,,,,,,,,,,,,,,,,,,,,,5,0,0,0,1,0,0,1,0,1,0,1,0,,,,375.483,40.91,794,62265.633,1522,19,1,,,,,,,,,1,2,25,,,,,,
97,20,Woman,US,3,,,,,,,,,,,,,,,,,,,,,21,154,154,,,,,,,,,,,,,,,,,,,,,,,,,,,,,,,,,,,,,,,,,,,,,,,,,,,,,,,,,,,,,,,,,,,,,,,,,,,,,,,,,,,,,,,,,,,,,,,,,,,,,,,,2,0,0,0,1,0,0,1,0,1,0,1,0,,,,437.183,45.905,21,7069.333,154,3,1,,,,,,,,,3,2,38,,,,,,
98,25,Man,US,3,,,,,,,,,,,,,,,,,,10,21,,0,646,646,,,,,1,1,1,2,1,1,2,1,3,3,3,3,3,3,3,,,,60,,,,,,,,,,,,,,,,,,,,,,,,,,,,,,,,,,,,,,,,,,0,0,0,0,0,4,,,,2,,,,,30,6,,,,81,,,,,,,,,,,,,,,,,,,,25,0,0,0,1,0,0,1,0,0,1,1,0,,,,,,,,,,1,1,1,1,0,9624,20089,646,19,16,17,129,,,,,,
99,20,Man,US,2,,,,,,,,,,,,,,,,,,,,,0,0,0,,,,,,,,,,,,,,,,,,,,,,,,,,,,,,,,,,,,,,,,,,,,,,,,,,,,,,,,,,,,,,,,,,,,,,,,,,1,,,,,5,5,,,,381,,,,,,,,,,,,,,,,,,,,23,0,0,0,0,0,0,1,0,0,0,1,0,,,,,,,,,,0,,,,,,,,,50,17,270,,,,,,
100,20,Woman,US,3,,,,,,,,,,,,,,,,,,,,,189,663,663,,,,,,,,,,,,,,,,,,,,,,,,,,,,,,,,,,,,,,,,,,,,,,,,,,,,,,,,,,,,,,,,,,,,,,,,,,,,,,,,,,,,,,,,,,,,,,,,,,,,,,,,18,0,0,0,1,0,0,1,0,1,1,1,0,,,,280.167,16.48,189,5504.333,334,7,2,1,1,48,11216,3475,7129,329,17,13,14,146,,,,,,
101,20,Man,US,3,,,,,,,,,,,,,,,,,,9,,,0,0,0,,,,,1,1,1,1,1,1,2,1,,,,,,,,,,,,,,,,,,,,,,,,,,,,,,,,,,,,,,,,,,,,,,,,,,,,,,,,,,,,,,1,,,,,,,,,,29,,,,,,,,,,,,,,,,,,,,7,0,0,0,0,0,0,1,0,0,0,1,0,,,,,,,,,,0,,,,,,,,,2,3,46,,,,,,
102,20,Woman,US,4,,,,,,,,,,,,,,,,,,,,,0,19,19,,,,,,,,,,,,,,,,,,,,,,,,,,,,,,,,,,,,,,,,,,,,,,,,,,,,,,,,,,,,,,,,,,,,,,,,,,1,,,,,30,5,,,,145,,,,,,,,,,,,,,,,,,,,6,0,0,0,1,0,0,1,0,0,1,1,0,,,,,,,,,,1,1,1,439,84325,556,18829,19,2,6,4,37,,,,,,
103,30,Woman,US,2,,,,,,,,,,,,,,,,,,32,21,,0,0,0,,,,,4,4,4,4,4,4,4,4,3,3,3,3,3,3,3,,,,9,,,,,,,,,,,,,,,,,,,,,,,,,,,,,,,,,,,,,,,,,,,,,,,,,,,1,,,,,,,,,,115,,,,,,,,,,,,,,,,,,,,11,0,0,0,0,0,0,1,0,0,0,1,0,,,,,,,,,,0,,,,,,,,,3,4,177,,,,,,
104,20,Man,US,3,,,,,,,,,,,,,,,,,,12,26,75,1081,1338,1338,,,,,2,1,1,1,1,2,3,1,4,2,4,4,5,4,3,,,,58,6,2,2,2,5,6,7,2,1,2,5,6,3,3,2,7,7,7,,,,,,,,,,,,,,,,,,,,,,,,0,1,-3,0,-1,5,,,,1,,,,,20,8,,320,,1014,,,,,,,,,,,,,,,,,,,,2,0,0,0,1,0,0,1,0,1,0,1,0,,,,97.467,8.534,1081,11418.25,1338,4,1,,,,,,,,,1,1,8,,,,,,
105,20,Man,US,3,,,,,,,,,,,,,,,,,1,18,27,66,0,120,120,0,1,0,0,1,3,2,3,1,3,3,2,1,5,4,5,5,4,3,,,,90,7,1,2,1,6,2,4,1,1,1,7,6,1,3,2,7,7,7,,,,,,,,,,,,,,,,,,,,,,,,0,0,0,0,0,8,14,10,5,1,,,,,,,1830,0,640,1056,,,,,,,,,,,,,,,,,,,,5,0,0,0,1,1,0,1,0,0,1,1,0,,,,,,,,,,1,1,1,58,73488,2017,10506,120,8,10,2,152,,,,,,
106,20,Man,US,3,,,,,,,,,,,,,,,,,0,8,27,,0,0,0,0,0,0,0,1,1,1,1,1,1,1,1,3,4,4,4,4,4,4,,,,42,,,,,,,,,,,,,,,,,,,,,,,,,,,,,,,,,,,,,,,,,,0,0,0,0,0,4,,,,1,,,,,15,6,,,,114,,,,,,,,,,,,,,,,,,,,6,0,0,0,0,1,0,1,0,0,0,1,0,,,,,,,,,,0,,,,,,,,,1,3,18,,,,,,
107,25,Woman,US,2,,,,,,,,,,,,,,,,,2,,25,72,90,133,133,1,1,0,0,,,,,,,,,4,3,4,4,3,3,4,,,,80,6,4,2,2,6,6,4,3,2,2,6,6,2,2,2,6,6,5,,,,,,,,,,,,,,,,,,,,,,,,,,,,,8,,,,1,,,,,,,300,40,120,257,,,,,,,,,,,,,,,,,,,,6,0,0,0,1,1,0,1,0,1,0,1,0,,,,86.567,9.375,90,1246.833,133,4,1,,,,,,,,,2,3,19,,,,,,
108,25,Woman,US,4,,,,,,,,,,,,,,,,,,,,65,0,0,0,,,,,,,,,,,,,,,,,,,,,,,80,5,2,2,3,5,4,4,1,1,2,5,5,5,1,1,7,6,6,,,,,,,,,,,,,,,,,,,,,,,,0,1,0,-1,0,8,,,,1,,,,,,,2419,250,1206,1516,,,,,,,,,,,,,,,,,,,,3,0,0,0,0,0,0,1,0,0,0,1,0,,,,,,,,,,0,,,,,,,,,1,3,36,,,,,,
109,20,Man,US,6,,,,,,,,,,,,,,,,,7,20,21,66,43,828,828,2,2,2,1,3,3,2,3,2,2,3,2,2,3,3,3,3,3,4,,,,55,7,2,1,2,5,5,3,2,1,1,6,5,1,4,2,6,6,7,,,,,,,,,,,,,,,,,,,,,,,,0,1,0,-1,0,5,10,10,7,1,,,,,,,,,,2187,,,,,,,,,,,,,,,,,,,,8,0,0,0,1,1,0,1,0,1,1,1,0,,,,71.183,6.813,43,913,134,11,2,1,1,170,20276,5122,44064,694,26,6,6,199,,,,,,
110,25,Man,US,3,,,,,,,,,,,,,,,,,0,10,23,,0,0,0,0,0,0,0,1,1,1,2,1,1,2,1,3,3,3,4,4,3,3,,,,48,,,,,,,,,,,,,,,,,,,,,,,,,,,,,,,,,,,,,,,,,,0,0,0,0,0,4,,,,1,,,,,10,6,,,,164,,,,,,,,,,,,,,,,,,,,6,0,0,0,0,1,0,1,0,0,0,1,0,,,,,,,,,,0,,,,,,,,,3,1,18,,,,,,
111,25,Woman,US,3,,,,,,,,,,,,,,,,,5,33,17,78,80,385,385,1,2,2,0,4,3,5,4,5,4,4,4,2,3,2,3,3,2,2,,,,11,7,3,1,1,6,4,6,4,4,4,7,7,1,6,2,6,5,4,,,,,,,,,,,,,,,,,,,,,,,,0,-1,0,0,0,3,,,,1,,,,,60,4,105,180,120,519,,,,,,,,,,,,,,,,,,,,7,0,0,0,1,1,0,1,0,1,1,1,0,,,,286.7,36.168,80,10958.917,303,3,2,1,1,129,139706,1047,19406,82,10,2,2,28,,,,,,
112,30,Woman,US,4,,,,,,,,,,,,,,,,,,,,,34,98,98,,,,,,,,,,,,,,,,,,,,,,,,,,,,,,,,,,,,,,,,,,,,,,,,,,,,,,,,,,,,,,,,,,,,,,,,,,,,,,,,,,,,,,,,,,,,,,,,,,,,,,,,2,0,0,0,1,0,0,1,0,1,0,1,0,,,,231.417,34.203,34,3351.883,98,1,1,1,1,11,38337,,,,,2,1,15,,,,,,
113,25,Woman,US,2,,,,,,,,,,,,,,,,,,20,21,63,0,323,323,,,,,3,3,2,3,2,3,2,2,3,3,3,3,3,3,3,,,,50,6,2,4,1,5,5,4,1,4,1,5,5,1,1,1,6,6,5,,,,,,,,,,,,,,,,,,,,,,,,1,1,1,1,1,6,,,,1,,,,,45,8,1800,180,900,505,,,,,,,,,,,,,,,,,,,,1,0,0,0,1,0,0,1,0,0,1,0,0,,,,,,,,,,1,1,1,261,357995,1991,20717,323,31,,,,,,,,,
114,30,Woman,US,3,,,,,,,,,,,,,,,,,4,21,24,53,40,69,69,1,2,1,0,3,4,3,3,2,3,1,2,5,4,4,3,3,4,1,,,,100,5,1,1,1,5,5,6,1,1,1,3,3,1,2,1,4,6,6,,,,,,,,,,,,,,,,,,,,,,,,1,1,0,-1,0,6,10,20,,1,,,,,,,,384,1500,292,,,,,,,,,,,,,,,,,,,,7,0,0,0,1,1,0,1,0,1,0,1,0,,,,131.85,18.68,40,1288.917,69,4,1,,,,,,,,,3,5,49,,,,,,
115,25,Man,US,5,,,,,,,,,,,,,,,,,,,29,91,19,1180,1180,,,,,,,,,,,,,3,5,4,4,4,5,4,,,,,5,6,4,7,5,7,4,7,6,6,5,5,4,6,4,3,3,4,,,,,,,,,,,,,,,,,,,,,,,,,,,,,,,,,1,,,,,700,5,,1800,3000,271,,,,,,,,,,,,,,,,,,,,5,0,0,0,1,0,0,1,0,1,1,1,0,,,,455.233,49.901,19,2045.933,41,4,2,1,1,662,585793,7737,43116,1139,50,1,2,23,,,,,,
116,25,Man,US,4,,,,,,,,,,,,,,,,,,17,21,68,443,973,973,,,,,3,3,2,2,2,1,2,2,3,2,3,3,3,4,3,,,,70,4,4,4,3,4,4,3,3,5,2,5,5,3,4,3,4,3,5,,,,,,,,,,,,,,,,,,,,,,,,-1,0,-1,-1,-1,7,,,,1,,,,,30,8,900,0,300,683,,,,,,,,,,,,,,,,,,,,2,0,0,0,1,0,0,1,0,1,0,0,0,,,,265.283,21.468,443,20888.167,973,1,1,,,,,,,,,,,,,,,,,
117,20,Man,US,3,,,,,,,,,,,,,,,,,,22,21,69,0,9,9,,,,,2,3,2,4,2,3,4,2,3,4,4,2,4,3,1,,,,70,4,4,4,4,4,4,4,4,4,1,4,4,4,4,4,4,4,4,,,,,,,,,,,,,,,,,,,,,,,,0,0,0,0,0,6,,,,1,,,,,20,4,3900,540,2100,808,,,,,,,,,,,,,,,,,,,,3,0,0,0,1,0,0,1,0,0,1,1,0,,,,,,,,,,1,1,1,100,98030,319,12389,9,2,1,2,19,,,,,,
118,20,Man,US,4,,,,,,,,,,,,,,,,,7,11,20,75,0,335,335,2,1,2,2,1,2,2,1,1,1,1,2,2,2,3,3,2,4,4,,,,65,6,5,2,1,3,7,6,6,5,2,6,7,1,1,1,5,4,7,,,,,,,,,,,,,,,,,,,,,,,,3,2,1,1,3,5,480,480,,1,,,,,,,1822,203,895,856,,,,,,,,,,,,,,,,,,,,5,0,0,0,1,1,0,1,0,0,1,1,0,,,,,,,,,,1,1,1,64,64986,3928,27579,335,35,25,2,152,,,,,,
119,30,Man,US,2,,,,,,,,,,,,,,,,,,22,19,63,0,0,0,,,,,3,3,3,2,3,2,2,4,2,3,2,4,3,2,3,,,,65,5,4,3,3,4,3,4,4,5,2,3,4,4,3,3,3,4,2,,,,,,,,,,,,,,,,,,,,,,,,0,1,0,1,0,6,,,,2,,,,,260,10,900,300,420,297,,,,,,,,,,,,,,,,,,,,23,0,0,0,0,0,0,1,0,0,0,1,0,,,,,,,,,,0,,,,,,,,,13,17,145,,,,,,
120,20,Man,US,3,,,,,,,,,,,,,,,,,,11,27,75,0,44,44,,,,,1,1,2,2,2,1,1,1,4,3,4,4,5,3,4,,,,89,7,3,1,4,3,2,5,6,5,3,5,5,5,2,1,6,5,7,,,,,,,,,,,,,,,,,,,,,,,,0,2,0,-1,0,6,,,,2,,,,,40,5,3103,390,1645,2862,,,,,,,,,,,,,,,,,,,,26,0,0,0,1,0,0,1,0,0,1,1,0,,,,,,,,,,1,1,1,246,251975,461,20113,44,8,17,15,119,,,,,,
121,20,Man,US,2,,,,,,,,,,,,,,,,,,32,22,76,27,55,55,,,,,4,4,4,4,4,4,4,4,2,2,4,4,4,2,4,,,,46,6,3,6,6,6,5,5,5,2,6,5,5,3,2,2,3,3,3,,,,,,,,,,,,,,,,,,,,,,,,2,2,2,2,0,6,,,,1,,,,,60,6,3300,300,1500,484,,,,,,,,,,,,,,,,,,,,2,0,0,0,1,0,0,1,0,1,0,1,0,,,,79.833,18.274,27,1005.067,55,1,1,,,,,,,,,1,1,7,,,,,,
122,20,Man,US,4,,,,,,,,,,,,,,,,,,10,35,,0,44,44,,,,,1,1,1,1,1,2,2,1,5,5,5,5,5,5,5,,,,100,,,,,,,,,,,,,,,,,,,,,,,,,,,,,,,,,,,,,,,,,,,,,,,,,,,1,,,,,30,9,,,,252,,,,,,,,,,,,,,,,,,,,7,0,0,0,1,0,0,1,0,0,1,1,0,,,,,,,,,,1,1,1,2,7,1067,1664,44,2,1,4,165,,,,,,
123,25,Man,US,4,,,,,,,,,,,,,,,,,,20,24,68,0,211,211,,,,,3,2,1,3,3,3,3,2,3,4,4,4,4,2,3,,,,75,7,3,2,2,5,5,4,2,1,2,5,6,2,1,2,6,6,7,,,,,,,,,,,,,,,,,,,,,,,,2,3,0,2,0,7,,,,1,,,,,30,8,1440,360,720,2396,,,,,,,,,,,,,,,,,,,,1,0,0,0,1,0,0,1,0,0,1,0,0,,,,,,,,,,1,1,1,134,13728,1713,9630,211,24,,,,,,,,,
124,25,Man,US,4,,,,,,,,,,,,,,,,,,,,,146,566,566,,,,,,,,,,,,,,,,,,,,,,,,,,,,,,,,,,,,,,,,,,,,,,,,,,,,,,,,,,,,,,,,,,,,,,,,,,1,,,,,,,,,,1986,,,,,,,,,,,,,,,,,,,,4,0,0,0,1,0,0,1,0,1,1,1,0,,,,172.25,18.317,146,4762.317,260,6,2,1,1,45,132362,4258,9640,306,11,1,2,20,,,,,,
125,20,Woman,US,3,,,,,,,,,,,,,,,,,,,,,0,286,286,,,,,,,,,,,,,,,,,,,,,,,,,,,,,,,,,,,,,,,,,,,,,,,,,,,,,,,,,,,,,,,,,,,,,,,,,,,,,,,,,,,,,,,,,,,,,,,,,,,,,,,,6,0,0,0,1,0,0,1,0,0,1,1,0,,,,,,,,,,1,1,1,36,10693,2987,8658,286,13,6,3,51,,,,,,
126,30,Man,US,2,,,,,,,,,,,,,,,,,,15,27,66,0,0,0,,,,,2,2,2,2,1,2,2,2,4,3,4,4,4,4,4,,,,58,7,3,2,3,2,3,4,2,2,2,5,6,2,3,3,6,5,6,,,,,,,,,,,,,,,,,,,,,,,,1,0,0,0,0,6,,,,2,,,,,15,7,1200,45,480,669,,,,,,,,,,,,,,,,,,,,22,0,0,0,0,0,0,1,0,0,0,1,0,,,,,,,,,,0,,,,,,,,,15,16,132,,,,,,
127,30,Woman,US,2,,,,,,,,,,,,,,,,,3,20,23,78,0,161,161,1,1,1,0,2,2,3,3,2,2,3,3,3,3,4,4,3,3,3,,,,65,5,5,5,5,3,6,4,3,3,3,5,5,4,5,3,4,5,5,,,,,,,,,,,,,,,,,,,,,,,,1,0,0,2,0,7,,,,1,,,,,30,7,120,0,60,1098,,,,,,,,,,,,,,,,,,,,8,0,0,0,1,1,0,1,0,0,1,1,0,,,,,,,,,,1,1,1,12,12409,4618,6020,161,18,3,4,44,,,,,,
128,25,Woman,US,1,,,,,,,,,,,,,,,,,1,,,,0,142,142,0,1,0,0,,,,,,,,,,,,,,,,,,,78,,,,,,,,,,,,,,,,,,,,,,,,,,,,,,,,,,,,,,,,,,,,,,,,,,,1,,,,,,,,,,2150,,,,,,,,,,,,,,,,,,,,,,,0,1,1,0,0,0,0,1,0,0,,,,,,,,,,1,1,1,9,349,3674,4655,142,5,,,,,,,,,
129,25,Man,US,4,,,,,,,,,,,,,,,,,4,23,,77,83,122,122,2,1,1,0,3,2,3,3,3,3,3,3,,,,,,,,,,,44,7,2,2,2,7,7,6,1,1,1,7,7,4,2,2,6,7,6,,,,,,,,,,,,,,,,,,,,,,,,,,,,,4,,,,1,,,,,,,,,,1094,,,,,,,,,,,,,,,,,,,,5,0,0,0,1,1,0,1,0,1,0,1,0,,,,394.9,55.888,83,6818.35,122,11,1,,,,,,,,,3,2,26,,,,,,
130,30,Man,US,2,,,,,,,,,,,,,,,,,5,11,21,74,0,0,0,1,3,1,0,2,1,1,1,2,1,2,1,2,2,4,2,4,3,4,,,,60,4,1,6,5,5,4,4,3,3,2,5,4,4,5,5,4,5,5,,,,,,,,,,,,,,,,,,,,,,,,1,1,1,1,0,4,,,,1,,,,,5,5,4800,240,2100,965,,,,,,,,,,,,,,,,,,,,9,0,0,0,0,1,0,1,0,0,0,1,0,,,,,,,,,,0,,,,,,,,,2,4,35,,,,,,
131,20,Woman,US,3,,,,,,,,,,,,,,,,,,27,19,90,0,0,0,,,,,4,3,4,2,4,4,4,2,3,3,3,1,3,3,3,,,,20,7,4,6,4,6,7,4,4,1,3,7,7,1,1,7,7,7,7,,,,,,,,,,,,,,,,,,,,,,,,0,0,0,0,0,4,,,,2,,,,,5,6,,218,,896,,,,,,,,,,,,,,,,,,,,20,0,0,0,0,0,0,1,0,0,0,1,0,,,,,,,,,,0,,,,,,,,,18,15,226,,,,,,
132,20,Man,US,1,,,,,,,,,,,,,,,,,,,,,0,0,0,,,,,,,,,,,,,,,,,,,,,,,,,,,,,,,,,,,,,,,,,,,,,,,,,,,,,,,,,,,,,,,,,,,,,,,,,,1,,,,,,,,,,67,,,,,,,,,,,,,,,,,,,,,,,0,0,0,0,0,0,0,0,0,0,,,,,,,,,,0,,,,,,,,,,,,,,,,,
133,30,Man,US,3,,,,,,,,,,,,,,,,,,,,,0,0,0,,,,,,,,,,,,,,,,,,,,,,,,,,,,,,,,,,,,,,,,,,,,,,,,,,,,,,,,,,,,,,,,,,,,,,,,,,,,,,,,,,,,,,,,,,,,,,,,,,,,,,,,7,0,0,0,0,0,0,1,0,0,0,1,0,,,,,,,,,,0,,,,,,,,,3,3,21,,,,,,
134,25,Man,US,1,,,,,,,,,,,,,,,,,3,18,24,67,0,123,123,1,1,1,0,2,2,2,3,2,2,3,2,3,4,4,3,4,3,3,,,,58,7,2,2,2,5,5,4,2,2,2,5,7,2,2,2,4,6,6,,,,,,,,,,,,,,,,,,,,,,,,0,-1,-1,0,0,4,,,,1,,,,,,,1975,380,1125,329,,,,,,,,,,,,,,,,,,,,,,,0,1,1,0,0,0,0,1,0,0,,,,,,,,,,1,1,1,126,146191,2612,14820,123,8,,,,,,,,,
135,25,Man,US,1,,,,,,,,,,,,,,,,,,,,,0,0,0,,,,,,,,,,,,,,,,,,,,,,,,,,,,,,,,,,,,,,,,,,,,,,,,,,,,,,,,,,,,,,,,,,,,,,,,,,1,,,,,,,,,,50,,,,,,,,,,,,,,,,,,,,,,,0,0,0,0,0,0,0,0,0,0,,,,,,,,,,0,,,,,,,,,,,,,,,,,
136,30,Man,US,1,,,,,,,,,,,,,,,,,3,21,29,104,30429,61548,61548,1,2,0,0,3,4,1,2,3,3,3,2,4,4,5,4,4,4,4,,,,90,6,7,3,7,6,6,5,6,6,4,6,7,6,4,6,6,7,6,,,,,,,,,,,,,,,,,,,,,,,,-3,-3,-2,-1,-1,9,25,25,,1,,,,,,,3600,285,1800,1041,,,,,,,,,,,,,,,,,,,,,,,0,1,1,0,0,0,0,0,0,1,,,,,,,,,,1,,,,,,,,,,,,870,28.495,30429,1753818.183,61548,310
137,20,Man,US,4,,,,,,,,,,,,,,,,,,17,27,77,113,174,174,,,,,2,3,1,3,1,3,2,2,4,4,4,4,4,4,3,,,,69,6,3,1,2,6,7,5,5,2,5,6,7,1,1,1,6,6,7,,,,,,,,,,,,,,,,,,,,,,,,3,2,1,0,0,4,,,,1,,,,,,,2460,270,1320,465,,,,,,,,,,,,,,,,,,,,5,0,0,0,1,0,0,1,0,1,0,0,0,,,,83.183,7.679,113,1336.217,174,9,1,,,,,,,,,,,,,,,,,
138,30,Woman,US,2,,,,,,,,,,,,,,,,,,,24,,0,38,38,,,,,,,,,,,,,2,3,5,3,4,3,4,,,,,,,,,,,,,,,,,,,,,,,,,,,,,,,,,,,,,,,,,,,,,,,,,,,,,,,1,,,,,,,,,,79,,,,,,,,,,,,,,,,,,,,5,0,0,0,1,0,0,1,0,0,1,1,0,,,,,,,,,,1,1,1,1,0,997,10737,38,3,3,2,11,,,,,,
139,20,Man,US,1,,,,,,,,,,,,,,,,,,,,,0,0,0,,,,,,,,,,,,,,,,,,,,,,,,,,,,,,,,,,,,,,,,,,,,,,,,,,,,,,,,,,,,,,,,,,,,,,,,,,1,,,,,,,,,,27,,,,,,,,,,,,,,,,,,,,,,,0,0,0,0,0,0,0,0,0,0,,,,,,,,,,0,,,,,,,,,,,,,,,,,
140,20,Man,US,1,,,,,,,,,,,,,,,,,,,21,,14477,28249,28249,,,,,,,,,,,,,2,3,3,2,4,3,4,,,,,,,,,,,,,,,,,,,,,,,,,,,,,,,,,,,,,,,,,,,,,,0,3,-1,2,-1,6,,,,1,,,,,,,,,,564,,,,,,,,,,,,,,,,,,,,1,0,0,0,1,0,0,1,0,0,0,1,1,,,,,,,,,,1,,,,,,,,,1,1,10,810,33.541,14477,947511.85,28249,226
141,20,Woman,US,3,,,,,,,,,,,,,,,,,,26,25,58,386,966,966,,,,,2,3,3,4,2,4,4,4,2,3,5,3,5,4,3,,,,79,7,1,1,1,4,4,4,1,1,1,7,7,1,1,1,4,7,5,,,,,,,,,,,,,,,,,,,,,,,,0,2,1,0,0,4,,,,1,,,,,15,7,105,,90,831,,,,,,,,,,,,,,,,,,,,2,0,0,0,1,0,0,1,0,1,1,1,0,,,,1077.633,61.563,386,53560.05,870,17,2,1,1,109,125889,946,34026,96,21,2,1,13,,,,,,
142,25,Man,US,3,,,,,,,,,,,,,,,,,1,11,23,76,0,580,580,0,1,0,0,3,1,1,1,2,1,1,1,4,3,3,3,3,4,3,,,,80,6,5,1,1,4,7,4,3,2,4,6,5,1,5,6,4,6,6,,,,,,,,,,,,,,,,,,,,,,,,0,0,0,0,0,8,,,,1,,,,,300,4,3600,390,2280,596,,,,,,,,,,,,,,,,,,,,6,0,0,0,1,1,0,1,0,0,1,1,0,,,,,,,,,,1,1,1,138,212631,6433,47302,580,18,2,3,29,,,,,,
143,20,Man,US,2,,,,,,,,,,,,,,,,,,,,,524,1069,1069,,,,,,,,,,,,,,,,,,,,,,,,,,,,,,,,,,,,,,,,,,,,,,,,,,,,,,,,,,,,,,,,,,,,,,,,,,1,,,,,,,,,,140,,,,,,,,,,,,,,,,,,,,5,0,0,0,1,0,0,1,0,1,0,1,0,,,,441.95,17.843,524,19074.55,1069,10,1,,,,,,,,,2,2,10,,,,,,
144,25,Woman,US,2,,,,,,,,,,,,,,,,,0,8,26,61,0,0,0,0,0,0,0,1,1,1,1,1,1,1,1,3,3,5,3,5,3,4,,,,88,7,1,1,1,4,5,4,1,1,1,7,7,1,1,1,5,6,7,,,,,,,,,,,,,,,,,,,,,,,,2,0,0,0,0,7,,,,1,,,,,20,6,3600,180,1800,689,,,,,,,,,,,,,,,,,,,,7,0,0,0,0,1,0,1,0,0,0,1,0,,,,,,,,,,0,,,,,,,,,5,4,37,,,,,,
145,30,Man,US,3,,,,,,,,,,,,,,,,,,14,24,82,0,607,607,,,,,1,2,1,2,1,3,3,1,5,2,2,4,4,4,3,,,,58,6,5,1,1,7,7,6,7,1,1,7,6,1,2,4,6,7,7,,,,,,,,,,,,,,,,,,,,,,,,0,0,0,0,0,6,,,,2,,,,,12,8,900,0,300,281,,,,,,,,,,,,,,,,,,,,21,0,0,0,1,0,0,1,0,0,1,1,0,,,,,,,,,,1,1,1,119,416930,2436,60611,607,32,15,13,118,,,,,,
146,25,Man,US,1,,,,,,,,,,,,,,,,,,,,,0,0,0,,,,,,,,,,,,,,,,,,,,,,,,,,,,,,,,,,,,,,,,,,,,,,,,,,,,,,,,,,,,,,,,,,,,,,5,,,,1,,,,,,,,,,41,,,,,,,,,,,,,,,,,,,,1,0,0,0,0,0,0,1,0,0,0,1,0,,,,,,,,,,0,,,,,,,,,0,1,5,,,,,,
147,30,Woman,US,3,,,,,,,,,,,,,,,,,,,,,31,56,56,,,,,,,,,,,,,,,,,,,,,,,,,,,,,,,,,,,,,,,,,,,,,,,,,,,,,,,,,,,,,,,,,,,,,,,,,,,,,,,,,,,,,,,,,,,,,,,,,,,,,,,,6,0,0,0,1,0,0,1,0,1,0,1,0,,,,58.383,9.771,31,547.167,56,1,1,,,,,,,,,1,3,48,,,,,,
148,25,Man,US,2,,,,,,,,,,,,,,,,,,11,24,85,0,637,637,,,,,1,1,1,2,1,2,2,1,3,3,4,3,4,4,3,,,,80,7,7,7,2,7,7,7,1,1,1,7,7,1,1,1,7,7,7,,,,,,,,,,,,,,,,,,,,,,,,-1,0,-1,0,-1,7,,,,2,,,,,65,7,4320,720,900,393,,,,,,,,,,,,,,,,,,,,22,0,0,0,1,0,0,1,0,0,1,1,0,,,,,,,,,,1,1,1,120,527222,2021,115535,637,47,10,15,137,,,,,,
149,25,Man,US,4,,,,,,,,,,,,,,,,,,,,,0,0,0,,,,,,,,,,,,,,,,,,,,,,,,,,,,,,,,,,,,,,,,,,,,,,,,,,,,,,,,,,,,,,,,,,,,,,,,,,,,,,,,,,,,,,,,,,,,,,,,,,,,,,,,6,0,0,0,0,0,0,1,0,0,0,0,0,,,,,,,,,,0,,,,,,,,,,,,,,,,,
150,25,Man,US,4,,,,,,,,,,,,,,,,,,26,23,65,238,358,358,,,,,3,4,3,3,3,4,3,3,2,3,4,4,4,3,3,,,,79,6,2,1,1,6,6,6,1,1,1,6,6,1,1,1,6,6,7,,,,,,,,,,,,,,,,,,,,,,,,1,0,0,2,0,6,,,,1,,,,,8,9,10800,300,3600,468,,,,,,,,,,,,,,,,,,,,3,0,0,0,1,0,0,1,0,1,0,1,0,,,,108.417,6.918,238,2476.65,358,3,1,,,,,,,,,8,1,20,,,,,,
151,25,Woman,US,3,,,,,,,,,,,,,,,,,,,,,12,35,35,,,,,,,,,,,,,,,,,,,,,,,,,,,,,,,,,,,,,,,,,,,,,,,,,,,,,,,,,,,,,,,,,,,,,,,,,,,,,,,,,,,,,,,,,,,,,,,,,,,,,,,,2,0,0,0,1,0,0,1,0,1,0,1,0,,,,75.417,12.559,12,439.567,35,1,1,,,,,,,,,3,1,8,,,,,,
152,30,Man,US,3,,,,,,,,,,,,,,,,,,8,21,71,0,0,0,,,,,1,1,1,1,1,1,1,1,2,3,3,3,3,3,4,,,,50,5,4,4,2,4,5,4,1,1,7,5,6,3,4,2,4,5,5,,,,,,,,,,,,,,,,,,,,,,,,0,0,0,0,0,5,,,,2,,,,,20,7,1200,240,480,772,,,,,,,,,,,,,,,,,,,,20,0,0,0,0,0,0,1,0,0,0,1,0,,,,,,,,,,0,,,,,,,,,24,14,149,,,,,,
153,30,Man,US,4,,,,,,,,,,,,,,,,,4,14,22,78,0,171,171,1,1,1,1,1,2,2,2,2,2,2,1,3,3,3,3,3,4,3,,,,75,5,4,4,4,5,5,5,3,3,3,5,5,4,3,4,6,5,5,,,,,,,,,,,,,,,,,,,,,,,,1,1,0,0,0,7,15,15,,1,,,,,,,600,120,300,566,,,,,,,,,,,,,,,,,,,,3,0,0,0,1,1,0,1,0,0,1,1,0,,,,,,,,,,1,1,1,169,173150,2788,15296,171,11,1,1,5,,,,,,
154,25,Man,US,1,,,,,,,,,,,,,,,,,6,25,20,75,4283,6951,6951,1,2,3,0,3,3,3,3,3,4,3,3,2,3,2,4,4,2,3,,,,77,7,3,1,1,7,7,7,1,1,1,7,7,1,3,1,6,7,7,,,,,,,,,,,,,,,,,,,,,,,,2,2,1,3,0,5,10,10,,1,,,,,,,3360,240,1680,465,,,,,,,,,,,,,,,,,,,,1,0,0,0,1,1,0,1,0,1,0,1,0,,,,236.7,14.236,4283,98951.833,6951,22,1,,,,,,,,,1,1,7,,,,,,
155,25,Woman,US,3,,,,,,,,,,,,,,,,,1,8,25,72,21,23,23,0,1,0,0,1,1,1,1,1,1,1,1,4,4,4,2,4,3,4,,,,50,4,4,4,4,4,4,4,4,4,4,4,4,4,4,4,4,4,4,,,,,,,,,,,,,,,,,,,,,,,,0,0,0,0,0,5,10,10,3,2,,,,,,,300,60,180,2165,,,,,,,,,,,,,,,,,,,,4,0,0,0,1,1,0,1,0,1,0,1,0,,,,69.267,11.75,21,270.25,23,3,1,,,,,,,,,0,1,3,,,,,,
156,20,Woman,US,3,,,,,,,,,,,,,,,,,,,,,348,613,613,,,,,,,,,,,,,,,,,,,,,,,,,,,,,,,,,,,,,,,,,,,,,,,,,,,,,,,,,,,,,,,,,,,,,,,,,,,,,,,,,,,,,,,,,,,,,,,,,,,,,,,,2,0,0,0,1,0,0,1,0,1,0,1,0,,,,264.467,38.194,348,23413.167,613,1,1,1,1,,,,,,,0,1,9,,,,,,
157,25,Man,US,3,,,,,,,,,,,,,,,,,,,,,33,82,82,,,,,,,,,,,,,,,,,,,,,,,,,,,,,,,,,,,,,,,,,,,,,,,,,,,,,,,,,,,,,,,,,,,,,,,,,,,,,,,,,,,,,,,,,,,,,,,,,,,,,,,,4,0,0,0,1,0,0,1,0,1,0,1,0,,,,133.2,18.43,33,1511.25,82,13,1,1,1,,,,,,,1,1,6,,,,,,
158,25,Man,US,3,,,,,,,,,,,,,,,,,,16,25,75,0,372,372,,,,,1,2,2,3,3,1,3,1,4,3,4,4,4,3,3,,,,67,5,3,2,4,2,5,4,3,5,2,4,4,5,7,4,6,5,5,,,,,,,,,,,,,,,,,,,,,,,,-1,-1,1,-2,-1,7,,,,2,,,,,25,6,,240,840,322,,,,,,,,,,,,,,,,,,,,17,0,0,0,1,0,0,1,0,0,1,1,0,,,,,,,,,,1,1,1,67,61231,1491,4694,372,24,17,14,258,,,,,,
159,25,Man,US,4,,,,,,,,,,,,,,,,,,26,26,126,68,425,425,,,,,4,3,4,3,3,3,3,3,3,3,4,5,4,4,3,,,,90,7,7,7,7,7,7,7,7,7,7,7,7,7,7,7,7,7,7,,,,,,,,,,,,,,,,,,,,,,,,3,3,3,3,3,10,,,,1,,,,,30,7,2710,320,1230,245,,,,,,,,,,,,,,,,,,,,17,0,0,0,1,0,0,1,0,1,1,1,0,,,,130.733,6.883,68,2298.95,334,8,2,1,1,29,16350,734,9699,91,4,7,10,70,,,,,,
160,25,Man,US,2,,,,,,,,,,,,,,,,,,,,,0,0,0,,,,,,,,,,,,,,,,,,,,,,,,,,,,,,,,,,,,,,,,,,,,,,,,,,,,,,,,,,,,,,,,,,,,,,,,,,,,,,,,,,,,,,,,,,,,,,,,,,,,,,,,5,0,0,0,0,0,0,1,0,0,0,1,0,,,,,,,,,,0,,,,,,,,,13,3,160,,,,,,
161,30,Man,US,4,,,,,,,,,,,,,,,,,,,,,168,395,395,,,,,,,,,,,,,,,,,,,,,,,,,,,,,,,,,,,,,,,,,,,,,,,,,,,,,,,,,,,,,,,,,,,,,,,,,,2,,,,,,,,,,19,,,,,,,,,,,,,,,,,,,,13,0,0,0,1,0,0,1,0,1,0,1,0,,,,106.4,7.658,168,3025.083,395,5,1,3,1,,,,,,,8,9,209,,,,,,
162,25,Woman,US,1,,,,,,,,,,,,,,,,,1,9,,,0,984,984,0,1,0,0,2,1,1,1,1,1,1,1,,,,,,,,,,,,,,,,,,,,,,,,,,,,,,,,,,,,,,,,,,,,,,,,,,,,,,,,,,,,,,1,,,,,,,,,,245,,,,,,,,,,,,,,,,,,,,1,0,0,0,1,1,0,1,0,0,1,1,0,,,,,,,,,,1,1,1,165,155214,5583,25765,984,29,0,1,8,,,,,,
163,30,Woman,US,2,,,,,,,,,,,,,,,,,,8,26,70,1710,2179,2179,,,,,1,1,1,1,1,1,1,1,2,5,5,3,4,4,3,,,,100,6,4,6,1,5,4,6,3,3,3,4,5,1,2,3,6,3,5,,,,,,,,,,,,,,,,,,,,,,,,3,3,3,0,3,6,,,,1,,,,,30,5,1800,300,900,178,,,,,,,,,,,,,,,,,,,,1,0,0,0,1,0,0,1,0,1,0,1,0,,,,128.967,8.472,1710,18459.65,2179,17,1,,,,,,,,,0,1,6,,,,,,
164,25,Man,US,2,,,,,,,,,,,,,,,,,,,,,739,957,957,,,,,,,,,,,,,,,,,,,,,,,,,,,,,,,,,,,,,,,,,,,,,,,,,,,,,,,,,,,,,,,,,,,,,,,,,,,,,,,,,,,,,,,,,,,,,,,,,,,,,,,,,,,0,1,0,0,0,0,1,0,0,0,,,,268.15,23.461,739,22452.6,957,5,1,,,,,,,,,,,,,,,,,
165,30,Man,US,5,,,,,,,,,,,,,,,,,,,,,0,35,35,,,,,,,,,,,,,,,,,,,,,,,,,,,,,,,,,,,,,,,,,,,,,,,,,,,,,,,,,,,,,,,,,,,,,,,,,,,,,,,,,,,,,,,,,,,,,,,,,,,,,,,,2,0,0,0,1,0,0,1,0,0,1,1,0,,,,,,,,,,1,1,1,9,84194,1893,69592,35,1,1,2,19,,,,,,
166,20,Man,US,2,,,,,,,,,,,,,,,,,,24,23,81,0,231,231,,,,,3,3,3,3,3,3,3,3,3,3,4,2,4,3,4,,,,69,6,5,2,3,4,4,5,5,5,6,4,3,5,6,5,5,4,4,,,,,,,,,,,,,,,,,,,,,,,,0,0,0,-2,0,6,,,,1,,,,,20,10,6000,360,3000,467,,,,,,,,,,,,,,,,,,,,3,0,0,0,1,0,0,1,0,0,1,1,0,,,,,,,,,,1,1,1,75,139991,2837,26525,231,33,2,1,66,,,,,,
167,25,Man,US,3,,,,,,,,,,,,,,,,,,,,,78,159,159,,,,,,,,,,,,,,,,,,,,,,,,,,,,,,,,,,,,,,,,,,,,,,,,,,,,,,,,,,,,,,,,,,,,,,,,,,,,,,,,,,,,,,,,,,,,,,,,,,,,,,,,3,0,0,0,1,0,0,1,0,1,0,1,0,,,,1436.067,36.732,78,5840.45,159,7,1,,,,,,,,,0,1,6,,,,,,
168,20,Non-binary,US,3,,,,,,,,,,,,,,,,,,,,,70,498,498,,,,,,,,,,,,,,,,,,,,,,,,,,,,,,,,,,,,,,,,,,,,,,,,,,,,,,,,,,,,,,,,,,,,,,,,,,,,,,,,,,,,,,,,,,,,,,,,,,,,,,,,13,0,0,0,1,0,0,1,0,1,1,1,0,,,,856.517,76.373,70,15885.567,208,3,2,1,1,167,285852,2630,29085,290,21,2,4,31,,,,,,
169,20,Man,US,3,,,,,,,,,,,,,,,,,,12,27,61,33,37,37,,,,,1,1,1,3,1,1,3,1,3,4,4,4,4,4,4,,,,73,6,3,2,2,2,2,2,2,2,2,5,6,2,3,4,5,6,5,,,,,,,,,,,,,,,,,,,,,,,,0,0,0,0,0,4,,,,1,,,,,20,6,305,0,122,277,,,,,,,,,,,,,,,,,,,,2,0,0,0,1,0,0,1,0,1,0,0,0,,,,129.917,20.121,33,744.467,37,1,1,1,1,1,8,,,,,,,,,,,,,
170,25,Man,US,2,,,,,,,,,,,,,,,,,,,,,0,7,7,,,,,,,,,,,,,,,,,,,,,,,,,,,,,,,,,,,,,,,,,,,,,,,,,,,,,,,,,,,,,,,,,,,,,,,,,,,,,,,,,,,,,,,,,,,,,,,,,,,,,,,,5,0,0,0,1,0,0,1,0,0,1,1,0,,,,,,,,,,1,1,1,7,4290,249,3450,7,2,0,2,21,,,,,,
171,20,Man,US,4,,,,,,,,,,,,,,,,,,,,,4189,6654,6654,,,,,,,,,,,,,,,,,,,,,,,81,,,,,,,,,,,,,,,,,,,,,,,,,,,,,,,,,,,,,,,,,,3,3,3,3,3,,,,,1,,,,,3,8,,,,603,,,,,,,,,,,,,,,,,,,,2,0,0,0,1,0,0,1,0,0,1,1,1,,,,,,,,,,2,1,1,13,2105,1580,1740,52,7,1,1,6,655,39.347,4189,259767.3,6602,181
172,30,Man,US,4,,,,,,,,,,,,,,,,,,,,,47,93,93,,,,,,,,,,,,,,,,,,,,,,,,,,,,,,,,,,,,,,,,,,,,,,,,,,,,,,,,,,,,,,,,,,,,,,,,,,,,,,,,,,,,,,,,,,,,,,,,,,,,,,,,8,0,0,0,1,0,0,1,0,1,0,1,0,,,,119.417,8.088,47,752.15,93,7,1,,,,,,,,,10,5,51,,,,,,
173,20,Woman,US,3,,,,,,,,,,,,,,,,,,20,24,88,0,0,0,,,,,2,3,2,3,2,3,3,2,3,4,3,4,3,4,3,,,,62,5,3,5,4,7,3,5,5,6,6,4,5,6,4,5,6,3,6,,,,,,,,,,,,,,,,,,,,,,,,0,1,1,0,-1,6,,,,1,,,,,,,600,60,300,101,,,,,,,,,,,,,,,,0.9444444444444444,846.0111111111111,1,90,10,0,0,0,0,0,1,1,0,0,0,1,0,,,,,,,,,,0,,,,,,,,,5,6,46,,,,,,
174,20,Man,US,3,,,,,,,,,,,,,,,,,,,,,0,0,0,,,,,,,,,,,,,,,,,,,,,,,,,,,,,,,,,,,,,,,,,,,,,,,,,,,,,,,,,,,,,,,,,,,,,,,,,,,,,,,,,,,,,,,,,,,,,,,,,,,,,,,,4,0,0,0,0,0,0,1,0,0,0,1,0,,,,,,,,,,0,1,1,,,,,,,2,2,14,,,,,,
175,20,Woman,US,2,,,,,,,,,,,,,,,,,,,,,391,826,826,,,,,,,,,,,,,,,,,,,,,,,,,,,,,,,,,,,,,,,,,,,,,,,,,,,,,,,,,,,,,,,,,,,,,,,,,,,,,,,,,,,,,,,,,,,,,,,,,,,,,,,,10,0,0,0,1,0,0,1,0,1,0,1,0,,,,173.75,32.356,391,26725.7,826,7,1,,,,,,,,,5,5,56,,,,,,
176,20,Man,US,3,,,,,,,,,,,,,,,,,,,,,73,91,91,,,,,,,,,,,,,,,,,,,,,,,,,,,,,,,,,,,,,,,,,,,,,,,,,,,,,,,,,,,,,,,,,,,,,,,,,,,,,,,,,,,,,,,,,,,,,,,,,,,,,,,,4,0,0,0,1,0,0,1,0,1,0,1,0,,,,2186.567,103.751,73,9441.35,91,12,1,,,,,,,,,1,1,1,,,,,,
177,20,Woman,US,2,,,,,,,,,,,,,,,,,,,,,0,0,0,,,,,,,,,,,,,,,,,,,,,,,,,,,,,,,,,,,,,,,,,,,,,,,,,,,,,,,,,,,,,,,,,,,,,,,,,,,,,,,,,,,,,,,,,,,,,,,,,,,,,,,,5,0,0,0,0,0,0,1,0,0,0,1,0,,,,,,,,,,0,,,,,,,,,6,3,41,,,,,,
178,25,Woman,US,3,,,,,,,,,,,,,,,,,,13,27,78,5,8,8,,,,,1,3,1,1,1,3,2,1,3,4,4,4,4,4,4,,,,100,4,5,2,2,4,5,6,4,6,2,6,6,2,1,6,5,6,6,,,,,,,,,,,,,,,,,,,,,,,,2,2,2,3,0,8,,,,1,,,,,10,6,3600,180,1800,724,,,,,,,,,,,,,,,,,,,,1,0,0,0,1,0,0,1,0,1,0,0,0,,,,86.583,29.029,5,232.233,8,2,1,,,,,,,,,,,,,,,,,
179,30,Man,US,3,,,,,,,,,,,,,,,,,,,,,0,0,0,,,,,,,,,,,,,,,,,,,,,,,,,,,,,,,,,,,,,,,,,,,,,,,,,,,,,,,,,,,,,,,,,,,,,,,,,,,,,,,,,,,,,,,,,,,,,,,,,,,,,,,,8,0,0,0,0,0,0,1,0,0,0,1,0,,,,,,,,,,0,,,,,,,,,2,3,18,,,,,,
180,20,Woman,US,4,,,,,,,,,,,,,,,,,12,30,25,81,2,2,2,3,4,2,3,4,4,4,4,3,3,4,4,4,3,4,3,4,4,3,,,,60,5,5,5,6,3,3,4,4,4,5,6,4,4,4,4,7,3,5,,,,,,,,,,,,,,,,,,,,,,,,1,3,0,2,1,6,100,200,6,1,,,,,,,3600,240,1200,361,,,,,,,,,,,,,,,,,,,,4,0,0,0,1,1,0,1,0,1,0,1,0,,,,3.467,2.95,2,5.9,2,1,1,4,1,3,9168,,,,,2,1,17,,,,,,
181,20,Woman,US,1,,,,,,,,,,,,,,,,,4,21,21,71,0,0,0,0,3,1,0,3,2,2,3,2,3,3,3,3,3,3,3,3,3,3,,,,50,7,4,2,1,6,5,5,1,1,4,6,6,2,2,1,6,6,6,,,,,,,,,,,,,,,,,,,,,,,,1,0,1,0,1,6,45,45,,1,,,,,,,,,,972,,,,,,,,,,,,,,,,,,,,1,0,0,0,0,1,0,1,0,0,0,1,0,,,,,,,,,,0,,,,,,,,,1,1,5,,,,,,
182,25,Woman,US,1,,,,,,,,,,,,,,,,,2,17,25,90,2,7,7,0,0,0,2,2,1,1,2,3,3,4,1,3,2,4,2,5,5,4,,,,80,7,7,1,1,7,7,7,7,1,1,7,7,1,1,7,7,7,7,,,,,,,,,,,,,,,,,,,,,,,,3,3,3,3,3,2,20,20,,1,,,,,,,900,0,450,931,,,,,,,,,,,,,,,,,,,,1,0,0,0,1,1,0,1,0,1,0,1,0,,,,25.85,6.379,2,44.65,7,3,1,,,,,,,,,1,1,11,,,,,,
183,20,Man,US,1,,,,,,,,,,,,,,,,,0,8,28,65,0,0,0,0,0,0,0,1,1,1,1,1,1,1,1,5,4,4,4,4,3,4,,,,100,7,1,4,1,1,5,4,1,7,3,5,5,1,2,1,5,7,5,,,,,,,,,,,,,,,,,,,,,,,,,,,,,8,,,,1,,,,,,,,,,763,,,,,,,,,,,,,,,,,,,,1,0,0,0,0,1,0,1,0,0,0,1,0,,,,,,,,,,0,,,,,,,,,2,1,8,,,,,,
184,25,Man,US,4,,,,,,,,,,,,,,,,,7,10,25,80,0,161,161,0,3,4,0,1,1,1,1,1,1,3,1,4,5,4,4,4,3,1,,,,68,6,4,6,4,4,6,5,6,4,1,5,4,1,1,6,6,6,5,,,,,,,,,,,,,,,,,,,,,,,,0,-1,1,2,2,7,7,5,5,1,,,,,,,966,185,723,217,,,,,,,,,,,,,,,,,,,,5,0,0,0,1,1,0,1,0,0,1,1,0,,,,,,,,,,1,1,1,208,199863,6495,22031,161,7,5,4,37,,,,,,
185,30,Man,US,2,,,,,,,,,,,,,,,,,11,25,23,92,0,167,167,3,1,4,3,3,4,3,4,2,4,3,2,5,2,4,2,4,3,3,,,,93,7,5,4,6,7,5,4,5,4,5,5,4,6,5,6,4,5,5,,,,,,,,,,,,,,,,,,,,,,,,1,0,0,1,-1,8,30,30,7,1,,,,,,,,,,757,,,,,,,,,,,,,,,,,,,,3,0,0,0,1,1,0,1,0,0,1,1,0,,,,,,,,,,1,5,1,,,1815,15400,167,6,1,1,7,,,,,,
186,25,Man,US,2,,,,,,,,,,,,,,,,,,,,,0,0,0,,,,,,,,,,,,,,,,,,,,,,,,,,,,,,,,,,,,,,,,,,,,,,,,,,,,,,,,,,,,,,,,,,,,,,,,,,,,,,,,,,,,,,,,,,,,,,,,,,,,,,,,5,0,0,0,0,0,0,1,0,0,0,1,0,,,,,,,,,,0,,,,,,,,,2,1,8,,,,,,
187,20,Man,US,4,,,,,,,,,,,,,,,,,,14,22,69,0,0,0,,,,,2,1,1,2,1,3,3,1,3,4,4,1,4,2,4,,,,87,6,3,5,2,4,5,7,1,1,1,6,6,2,1,1,7,6,5,,,,,,,,,,,,,,,,,,,,,,,,1,2,1,1,0,8,,,,1,,,,,,,,490,1810,726,,,,,,,,,,,,,,,,,,,,10,0,0,0,0,0,0,1,0,0,0,1,0,,,,,,,,,,0,1,1,7,2149,,,,,2,3,31,,,,,,
188,20,Man,US,3,,,,,,,,,,,,,,,,,,,,,0,0,0,,,,,,,,,,,,,,,,,,,,,,,,,,,,,,,,,,,,,,,,,,,,,,,,,,,,,,,,,,,,,,,,,,,,,,,,,,,,,,,,,,,,,,,,,,,,,,,,,,,,,,,,12,0,0,0,0,0,0,1,0,0,0,1,0,,,,,,,,,,0,,,,,,,,,0,1,9,,,,,,
189,30,Non-binary,US,2,,,,,,,,,,,,,,,,,1,11,19,75,0,25,25,1,0,0,0,1,1,1,2,1,2,2,1,2,3,2,3,3,3,3,,,,65,5,4,5,4,5,6,5,1,1,1,7,5,1,4,4,5,6,6,,,,,,,,,,,,,,,,,,,,,,,,0,0,-2,0,0,5,30,30,,1,,,,,,,1260,0,840,712,,,,,,,,,,,,,,,,,,,,3,0,0,0,1,1,0,1,0,0,1,1,0,,,,,,,,,,1,1,1,27,31753,974,9663,25,1,0,2,11,,,,,,
190,30,Man,US,1,,,,,,,,,,,,,,,,,,,,,0,0,0,,,,,,,,,,,,,,,,,,,,,,,,,,,,,,,,,,,,,,,,,,,,,,,,,,,,,,,,,,,,,,,,,,,,,,,,,,1,,,,,,,,,,120,,,,,,,,,,,,,,,,,,,,1,0,0,0,0,0,0,1,0,0,0,1,0,,,,,,,,,,0,,,,,,,,,0,1,8,,,,,,
191,20,Man,US,3,,,,,,,,,,,,,,,,,,14,27,73,165,426,426,,,,,1,2,2,2,2,2,2,1,4,3,4,4,4,4,4,,,,63,6,2,2,3,5,6,5,2,3,2,6,6,3,3,2,6,5,6,,,,,,,,,,,,,,,,,,,,,,,,1,-1,0,-1,1,6,,,,1,,,,,,,1500,180,600,267,,,,,,,,,,,,,,,,,,,,3,0,0,0,1,0,0,1,0,1,1,1,0,,,,158.5,19.079,165,5723.817,300,19,2,1,1,39,18678,1053,2020,126,22,0,1,4,,,,,,
192,30,Man,US,2,,,,,,,,,,,,,,,,,,,,,0,82,82,,,,,,,,,,,,,,,,,,,,,,,,,,,,,,,,,,,,,,,,,,,,,,,,,,,,,,,,,,,,,,,,,,,,,,,,,,,,,,,,,,,,,,,,,,,,,,,,,,,,,,,,3,0,0,0,1,0,0,1,0,0,1,1,0,,,,,,,,,,1,1,1,70,104704,1784,8127,82,2,1,1,1,,,,,,
193,20,Woman,US,2,,,,,,,,,,,,,,,,,,,,,0,68,68,,,,,,,,,,,,,,,,,,,,,,,,,,,,,,,,,,,,,,,,,,,,,,,,,,,,,,,,,,,,,,,,,,,,,,,,,,,,,,,,,,,,,,,,,,,,,,,,,,,,,,,,4,0,0,0,1,0,0,1,0,0,1,1,0,,,,,,,,,,1,2,1,7,22938,1746,24125,68,2,2,1,10,,,,,,
194,20,Man,US,2,,,,,,,,,,,,,,,,,,8,31,67,0,331,331,,,,,1,1,1,1,1,1,1,1,4,4,5,5,5,3,5,,,,100,7,1,1,2,4,5,4,5,1,5,7,7,1,1,1,5,5,5,,,,,,,,,,,,,,,,,,,,,,,,0,1,0,1,0,10,,,,1,,,,,10,7,,,,1082,,,,,,,,,,,,,,,,,,,,3,0,0,0,1,0,0,1,0,0,1,1,0,,,,,,,,,,1,3,1,12,323524,5899,290943,331,4,0,1,11,,,,,,
195,20,Woman,US,6,,,,,,,,,,,,,,,,,,8,28,63,293,585,585,,,,,1,1,1,1,1,1,1,1,3,4,4,4,4,4,5,,,,90,7,1,1,1,4,4,4,4,1,4,6,5,1,1,1,5,7,6,,,,,,,,,,,,,,,,,,,,,,,,0,0,0,0,0,2,,,,1,,,,,20,7,1440,150,600,758,,,,,,,,,,,,,,,,,,,,3,0,0,0,1,0,0,1,0,1,0,1,0,,,,125.283,7.342,293,4294.983,585,10,1,,,,,,,,,2,2,25,,,,,,
196,30,Man,US,1,,,,,,,,,,,,,,,,,12,20,,75,885,1583,1583,3,4,2,3,2,2,3,3,2,2,3,3,,,,,,,,,,,92,6,1,1,1,6,6,7,1,6,1,6,6,5,1,1,6,7,7,,,,,,,,,,,,,,,,,,,,,,,,1,1,2,3,2,8,,,,1,,,,,,,2640,300,1370,614,,,,,,,,,,,,,,,,,,,,1,0,0,0,1,1,0,1,0,1,0,1,0,,,,232.3,12.868,885,20369.933,1583,18,1,,,,,,,,,0,1,5,,,,,,
197,25,Man,US,5,,,,,,,,,,,,,,,,,,30,19,75,0,61,61,,,,,4,3,4,4,4,4,3,4,3,3,3,3,3,2,2,,,,74,4,2,5,2,3,4,6,4,3,4,3,5,4,5,4,6,5,6,,,,,,,,,,,,,,,,,,,,,,,,1,1,1,0,0,3,,,,1,,,,,200,6,,,,409,,,,,,,,,,,,,,,,,,,,1,0,0,0,1,0,0,1,0,0,1,1,0,,,,,,,,,,1,1,1,50,50294,2858,22231,61,6,3,1,35,,,,,,
198,25,Man,US,1,,,,,,,,,,,,,,,,,6,13,22,63,0,0,0,1,2,3,0,1,2,3,3,1,1,1,1,4,4,3,2,3,3,3,,,,63,4,1,2,2,6,4,6,3,2,1,6,5,1,3,2,5,7,3,,,,,,,,,,,,,,,,,,,,,,,,-2,2,-1,0,1,6,30,30,,1,,,,,,,380,90,260,643,,,,,,,,,,,,,,,,,,,,1,0,0,0,0,1,0,1,0,0,0,1,0,,,,,,,,,,0,,,,,,,,,1,1,5,,,,,,
199,25,Man,US,4,,,,,,,,,,,,,,,,,,23,22,51,0,156,156,,,,,3,3,3,2,3,3,3,3,3,3,4,3,3,3,3,,,,72,5,1,3,2,4,4,1,1,1,1,4,4,1,2,2,5,5,5,,,,,,,,,,,,,,,,,,,,,,,,0,0,0,0,0,7,,,,1,,,,,,,1560,150,720,417,,,,,,,,,,,,,,,,0.9272727272727272,1724.1272727272728,1,55,11,0,0,0,1,0,1,1,0,0,1,1,0,,,,,,,,,,1,1,1,12,2996,2078,6343,156,18,2,4,64,,,,,,
200,25,Man,US,2,,,,,,,,,,,,,,,,,,,,,0,701,701,,,,,,,,,,,,,,,,,,,,,,,,,,,,,,,,,,,,,,,,,,,,,,,,,,,,,,,,,,,,,,,,,,,,,,,,,,,,,,,,,,,,,,,,,,,,,,,,,,,,,,,,9,0,0,0,1,0,0,1,0,0,1,1,0,,,,,,,,,,1,1,1,71,52852,9801,20512,701,24,3,2,38,,,,,,
201,20,Man,US,2,,,,,,,,,,,,,,,,,,20,25,74,0,0,0,,,,,2,3,2,3,2,3,3,2,4,4,3,3,4,4,3,,,,75,6,3,6,2,6,5,5,2,2,3,5,6,2,2,3,7,3,6,,,,,,,,,,,,,,,,,,,,,,,,1,1,1,2,0,7,,,,1,,,,,,,1200,120,600,418,,,,,,,,,,,,,,,,0.975,1020.0875,1,80,4,0,0,0,0,0,1,1,0,0,0,1,0,,,,,,,,,,0,,,,,,,,,1,3,33,,,,,,
202,20,Man,US,3,,,,,,,,,,,,,,,,,,,,,120,203,203,,,,,,,,,,,,,,,,,,,,,,,,,,,,,,,,,,,,,,,,,,,,,,,,,,,,,,,,,,,,,,,,,,,,,,,,,,,,,,,,,,,,,,,,,,,,,,,,,,,,,,,,4,0,0,0,1,0,0,1,0,1,0,1,0,,,,200.1,21.892,120,4443.983,203,3,1,,,,,,,,,1,2,14,,,,,,
203,20,Woman,US,4,,,,,,,,,,,,,,,,,,,,,66,127,127,,,,,,,,,,,,,,,,,,,,,,,,,,,,,,,,,,,,,,,,,,,,,,,,,,,,,,,,,,,,,,,,,,,,,,,,,,,,,,,,,,,,,,,,,,,,,,,,,,,,,,,,4,0,0,0,1,0,0,1,0,1,1,1,0,,,,106.017,16.387,66,1671.467,102,2,2,1,1,3,264,657,657,25,5,1,1,5,,,,,,
204,25,Man,US,2,,,,,,,,,,,,,,,,,,8,35,70,0,987,987,,,,,1,1,1,1,1,1,1,1,5,5,5,5,5,5,5,,,,100,7,1,1,4,4,4,4,1,7,1,7,5,1,1,1,7,7,7,,,,,,,,,,,,,,,,,,,,,,,,0,0,0,0,0,10,,,,1,,,,,,,,240,1500,188,,,,,,,,,,,,,,,,0.9871794871794872,1051.2948717948718,1,78,8,0,0,0,1,0,1,1,0,0,1,1,0,,,,,,,,,,1,1,1,75,102990,10274,61600,987,21,3,4,50,,,,,,
205,25,Woman,US,3,,,,,,,,,,,,,,,,,,,,,0,7,7,,,,,,,,,,,,,,,,,,,,,,,,,,,,,,,,,,,,,,,,,,,,,,,,,,,,,,,,,,,,,,,,,,,,,,,,,,,,,,,,,,,,,,,,,,,,,,,,,,,,,,,,1,0,0,0,1,0,0,1,0,0,1,0,0,,,,,,,,,,1,1,1,5,491,491,491,7,2,,,,,,,,,
206,25,Man,US,2,,,,,,,,,,,,,,,,,,,,,0,56,56,,,,,,,,,,,,,,,,,,,,,,,,,,,,,,,,,,,,,,,,,,,,,,,,,,,,,,,,,,,,,,,,,,,,,,,,,,,,,,,,,,,,,,,,,,,,,,,,,,,,,,,,6,0,0,0,1,0,0,1,0,0,1,1,0,,,,,,,,,,1,1,1,30,89616,1556,34838,56,4,1,3,40,,,,,,
207,25,Man,US,2,,,,,,,,,,,,,,,,,,12,25,81,0,16,16,,,,,2,1,1,1,2,1,2,2,3,4,2,2,5,5,4,,,,60,6,6,6,5,2,7,3,3,4,4,2,5,5,4,5,6,3,5,,,,,,,,,,,,,,,,,,,,,,,,2,3,1,1,1,6,,,,1,,,,,25,8,4200,320,2100,563,,,,,,,,,,,,,,,,,,,,3,0,0,0,1,0,0,1,0,0,1,0,0,,,,,,,,,,1,1,1,52,599346,255,40571,16,2,,,,,,,,,
208,30,Man,US,2,,,,,,,,,,,,,,,,,,,,,0,3,3,,,,,,,,,,,,,,,,,,,,,,,,,,,,,,,,,,,,,,,,,,,,,,,,,,,,,,,,,,,,,,,,,,,,,,,,,,,,,,,,,,,,,,,,,,,,,,,,,,,,,,,,3,0,0,0,1,0,0,1,0,1,0,0,0,,,,1.6,0.572,0,1.717,3,1,1,,,,,,,,,,,,,,,,,
209,20,Man,US,4,,,,,,,,,,,,,,,,,,,,,77,113,113,,,,,,,,,,,,,,,,,,,,,,,,,,,,,,,,,,,,,,,,,,,,,,,,,,,,,,,,,,,,,,,,,,,,,,,,,,,,,,,,,,,,,,,,,,,,,,,,,,,,,,,,6,0,0,0,1,0,0,1,0,1,1,1,0,,,,83.283,14.95,77,1569.8,105,1,2,1,1,22,99411,184,67787,8,4,1,2,13,,,,,,
210,20,Woman,US,3,,,,,,,,,,,,,,,,,,,,,541,1007,1007,,,,,,,,,,,,,,,,,,,,,,,,,,,,,,,,,,,,,,,,,,,,,,,,,,,,,,,,,,,,,,,,,,,,,,,,,,,,,,,,,,,,,,,,,,,,,,,,,,,,,,,,6,0,0,0,1,0,0,1,0,1,0,1,0,,,,389.85,21.921,541,22074.117,1007,12,1,1,1,21,0,,,,,3,3,28,,,,,,
211,25,Man,US,4,,,,,,,,,,,,,,,,,,,,,0,0,0,,,,,,,,,,,,,,,,,,,,,,,,,,,,,,,,,,,,,,,,,,,,,,,,,,,,,,,,,,,,,,,,,,,,,,,,,,1,,,,,30,5,,,,157,,,,,,,,,,,,,,,,,,,,2,0,0,0,0,0,0,1,0,0,0,0,0,,,,,,,,,,0,1,1,2,0,,,,,,,,,,,,,
212,25,Woman,US,3,,,,,,,,,,,,,,,,,,,,,182,279,279,,,,,,,,,,,,,,,,,,,,,,,,,,,,,,,,,,,,,,,,,,,,,,,,,,,,,,,,,,,,,,,,,,,,,,,,,,,,,,,,,,,,,,,,,,,,,,,,,,,,,,,,6,0,0,0,1,0,0,1,0,1,0,1,0,,,,291.417,30.048,182,8383.45,279,11,1,1,1,39,37975,,,,,1,1,12,,,,,,
213,25,Man,US,2,,,,,,,,,,,,,,,,,,24,23,74,0,0,0,,,,,1,1,4,4,2,4,4,4,3,2,4,5,4,2,3,,,,48,7,3,7,1,7,4,4,1,1,1,7,5,1,2,2,7,7,7,,,,,,,,,,,,,,,,,,,,,,,,0,0,-2,0,0,6,,,,1,,,,,,,1720,398,925,483,,,,,,,,,,,,,,,,0.9871794871794872,1044.8076923076924,1,78,7,0,0,0,0,0,1,1,0,0,0,1,0,,,,,,,,,,0,,,,,,,,,8,3,160,,,,,,
214,30,Man,US,5,,,,,,,,,,,,,,,,,,,,,0,0,0,,,,,,,,,,,,,,,,,,,,,,,,,,,,,,,,,,,,,,,,,,,,,,,,,,,,,,,,,,,,,,,,,,,,,,,,,,1,,,,,,,,,,1685,,,,,,,,,,,,,,,,,,,,6,0,0,0,0,0,0,1,0,0,0,1,0,,,,,,,,,,0,,,,,,,,,2,2,12,,,,,,
215,20,Woman,US,2,,,,,,,,,,,,,,,,,,,,,65,82,82,,,,,,,,,,,,,,,,,,,,,,,,,,,,,,,,,,,,,,,,,,,,,,,,,,,,,,,,,,,,,,,,,,,,,,,,,,,,,,,,,,,,,,,,,,,,,,,,,,,,,,,,4,0,0,0,1,0,0,1,0,1,0,1,0,,,,118.767,16.586,65,1360.083,82,6,1,,,,,,,,,2,1,9,,,,,,
216,25,Man,US,2,,,,,,,,,,,,,,,,,,22,22,64,0,0,0,,,,,2,3,3,3,2,3,3,3,3,3,3,3,3,4,3,,,,54,5,4,3,2,4,5,4,2,1,1,7,5,2,2,1,5,6,5,,,,,,,,,,,,,,,,,,,,,,,,1,1,-1,1,0,6,,,,1,,,,,,,1320,240,650,256,,,,,,,,,,,,,,,,0.8253968253968254,1428.6507936507937,1,63,7,0,0,0,0,0,1,1,0,0,0,1,0,,,,,,,,,,0,,,,,,,,,1,2,15,,,,,,
217,20,Man,US,2,,,,,,,,,,,,,,,,,,25,26,,0,0,0,,,,,2,4,2,4,2,5,2,4,5,2,4,4,4,4,3,,,,58,,,,,,,,,,,,,,,,,,,,,,,,,,,,,,,,,,,,,,,,,,0,0,-1,0,0,8,,,,1,,,,,35,9,,,,221,,,,,,,,,,,,,,,,,,,,2,0,0,0,0,0,0,1,0,0,0,1,0,,,,,,,,,,0,,,,,,,,,0,1,8,,,,,,
218,25,Woman,US,1,,,,,,,,,,,,,,,,,5,17,22,56,31750,69670,69670,0,3,2,0,2,4,1,3,1,2,3,1,3,4,4,2,4,3,2,,,,79,6,1,1,1,4,4,4,1,1,1,6,6,1,1,4,4,4,6,,,,,,,,,,,,,,,,,,,,,,,,0,0,0,0,0,7,20,25,,1,,,,,,,,,,674,,,,,,,,,,,,,,,,,,,,4,0,0,0,1,1,0,1,0,0,0,1,1,,,,,,,,,,1,,,,,,,,,1,1,9,825,27.056,31750,1884965.15,69670,736
219,30,Man,US,3,,,,,,,,,,,,,,,,,,,,,0,0,0,,,,,,,,,,,,,,,,,,,,,,,,,,,,,,,,,,,,,,,,,,,,,,,,,,,,,,,,,,,,,,,,,,,,,,,,,,1,,,,,,,,,,58,,,,,,,,,,,,,,,,,,,,4,0,0,0,0,0,0,1,0,0,0,1,0,,,,,,,,,,0,,,,,,,,,5,2,25,,,,,,
220,25,Man,US,3,,,,,,,,,,,,,,,,,,15,28,73,0,496,496,,,,,2,2,1,3,2,1,3,1,4,5,5,2,3,5,4,,,,61,1,1,1,1,6,7,2,6,7,7,7,6,5,1,1,6,7,1,,,,,,,,,,,,,,,,,,,,,,,,2,2,2,0,2,7,,,,1,,,,,60,7,840,120,480,743,,,,,,,,,,,,,,,,,,,,2,0,0,0,1,0,0,1,0,0,1,0,0,,,,,,,,,,1,1,1,314,1097970,5125,193435,496,24,,,,,,,,,
221,30,Man,US,1,,,,,,,,,,,,,,,,,2,19,27,84,804,1756,1756,1,1,0,0,1,3,4,3,2,2,2,2,4,4,3,3,4,4,5,,,,62,6,5,3,3,5,5,6,6,5,3,6,6,5,3,4,6,3,4,,,,,,,,,,,,,,,,,,,,,,,,1,2,2,0,-1,8,30,30,5,1,,,,,,,1800,240,960,441,,,,,,,,,,,,,,,,,,,,1,0,0,0,1,1,0,1,0,0,0,1,1,,,,,,,,,,1,,,,,,,,,1,1,15,1435,31.202,804,54790.867,1756,66
222,25,Man,US,4,,,,,,,,,,,,,,,,,,,,,0,40,40,,,,,,,,,,,,,,,,,,,,,,,,,,,,,,,,,,,,,,,,,,,,,,,,,,,,,,,,,,,,,,,,,,,,,,,,,,,,,,,,,,,,,,,,,,,,,,,,,,,,,,,,10,0,0,0,1,0,0,1,0,0,1,1,0,,,,,,,,,,1,1,1,20,2636,1143,1143,40,9,1,3,18,,,,,,
223,25,Non-binary,US,2,,,,,,,,,,,,,,,,,,,,,0,0,0,,,,,,,,,,,,,,,,,,,,,,,,,,,,,,,,,,,,,,,,,,,,,,,,,,,,,,,,,,,,,,,,,,,,,,,,,,,,,,,,,,,,,,,,,,,,,,,,,,,,,,,,9,0,0,0,0,0,0,1,0,0,0,1,0,,,,,,,,,,0,,,,,,,,,3,4,42,,,,,,
224,30,Woman,US,3,,,,,,,,,,,,,,,,,,,,,141,174,174,,,,,,,,,,,,,,,,,,,,,,,,,,,,,,,,,,,,,,,,,,,,,,,,,,,,,,,,,,,,,,,,,,,,,,,,,,,,,,,,,,,,,,,,,,,,,,,,,,,,,,,,8,0,0,0,1,0,0,1,0,1,1,1,0,,,,114.433,13.727,141,2347.367,171,7,2,1,1,94,26973,16,65,3,1,0,1,17,,,,,,
225,25,Man,US,3,,,,,,,,,,,,,,,,,,,,,812,1517,1517,,,,,,,,,,,,,,,,,,,,,,,,,,,,,,,,,,,,,,,,,,,,,,,,,,,,,,,,,,,,,,,,,,,,,,,,,,,,,,,,,,,,,,,,,,,,,,,,,,,,,,,,4,0,0,0,1,0,0,1,0,1,1,1,0,,,,222.85,1.388,812,1420.3,1023,3,2,1,1,50,613762,4351,80267,494,3,0,1,14,,,,,,
226,25,Woman,US,4,,,,,,,,,,,,,,,,,,,,,1419,2113,2113,,,,,,,,,,,,,,,,,,,,,,,,,,,,,,,,,,,,,,,,,,,,,,,,,,,,,,,,,,,,,,,,,,,,,,,,,,1,,,,,,,,,,134,,,,,,,,,,,,,,,,,,,,4,0,0,0,1,0,0,1,0,1,0,1,0,,,,308.75,12.987,1419,27442.4,2113,12,1,,,,,,,,,1,2,12,,,,,,
227,20,Woman,US,3,,,,,,,,,,,,,,,,,,,,,0,53,53,,,,,,,,,,,,,,,,,,,,,,,,,,,,,,,,,,,,,,,,,,,,,,,,,,,,,,,,,,,,,,,,,,,,,,,,,,,,,,,,,,,,,,,,,,,,,,,,,,,,,,,,3,0,0,0,1,0,0,1,0,0,1,1,0,,,,,,,,,,1,1,1,3,20419,1433,22854,53,1,0,1,25,,,,,,
228,25,Non-binary,US,4,,,,,,,,,,,,,,,,,8,,,,134,285,285,2,2,3,1,,,,,,,,,,,,,,,,,,,,,,,,,,,,,,,,,,,,,,,,,,,,,,,,,,,,,,,,,,,,,,,,,,4,,,,1,,,,,,,,,,196,,,,,,,,,,,,,,,,,,,,4,0,0,0,1,1,0,1,0,1,1,1,0,,,,479.233,48.018,134,13060.883,272,13,2,1,1,2,2163,245,1992,13,3,3,3,38,,,,,,
229,25,Man,US,2,,,,,,,,,,,,,,,,,,16,27,69,0,0,0,,,,,2,2,2,2,2,2,2,2,4,4,4,3,4,4,4,,,,72,6,2,2,2,5,5,2,6,2,2,6,6,2,2,1,7,6,5,,,,,,,,,,,,,,,,,,,,,,,,1,1,-2,-1,-1,7,,,,1,,,,,,,1500,45,600,262,,,,,,,,,,,,,,,,,,,,7,0,0,0,0,0,0,1,0,0,0,1,0,,,,,,,,,,0,,,,,,,,,8,3,29,,,,,,
230,30,Man,US,2,,,,,,,,,,,,,,,,,,17,26,63,413,1281,1281,,,,,2,2,1,3,1,3,3,2,3,4,4,3,4,4,4,,,,75,5,3,2,2,4,4,5,2,1,1,5,5,3,2,4,5,5,5,,,,,,,,,,,,,,,,,,,,,,,,1,0,0,1,0,7,,,,1,,,,,20,8,,,,291,,,,,,,,,,,,,,,,,,,,1,0,0,0,1,0,0,1,0,1,0,1,0,,,,359.833,13.263,413,16989.417,1281,6,1,,,,,,,,,2,1,11,,,,,,
231,25,Man,US,2,,,,,,,,,,,,,,,,,,9,25,77,0,0,0,,,,,1,1,1,1,1,2,1,1,4,3,4,4,4,3,3,,,,90,6,2,1,4,6,5,6,4,2,1,6,7,1,4,4,5,6,7,,,,,,,,,,,,,,,,,,,,,,,,3,2,2,2,1,8,,,,1,,,,,,,3600,390,2280,642,,,,,,,,,,,,,,,,0.9878048780487805,961.4512195121952,1,82,8,0,0,0,0,0,1,1,0,0,0,1,0,,,,,,,,,,0,,,,,,,,,3,4,34,,,,,,
232,30,Woman,US,2,,,,,,,,,,,,,,,,,,,,,0,150,150,,,,,,,,,,,,,,,,,,,,,,,,,,,,,,,,,,,,,,,,,,,,,,,,,,,,,,,,,,,,,,,,,,,,,,,,,,,,,,,,,,,,,,,,,,,,,,,,,,,,,,,,5,0,0,0,1,0,0,1,0,0,1,1,0,,,,,,,,,,1,1,1,44,151821,1244,69230,150,14,2,2,22,,,,,,
233,30,Man,US,3,,,,,,,,,,,,,,,,,,,,,0,0,0,,,,,,,,,,,,,,,,,,,,,,,,,,,,,,,,,,,,,,,,,,,,,,,,,,,,,,,,,,,,,,,,,,,,,,,,,,,,,,,,,,,,,,,,,,,,,,,,,,,,,,,,6,0,0,0,0,0,0,1,0,0,0,1,0,,,,,,,,,,0,,,,,,,,,1,1,7,,,,,,
234,20,Man,US,3,,,,,,,,,,,,,,,,,,9,34,79,133,306,306,,,,,1,1,1,2,1,1,1,1,5,5,4,5,5,5,5,,,,100,7,1,1,1,7,6,7,4,6,2,7,7,1,2,1,5,7,7,,,,,,,,,,,,,,,,,,,,,,,,0,0,0,0,0,10,,,,1,,,,,30,8,1380,180,900,464,,,,,,,,,,,,,,,,,,,,3,0,0,0,1,0,0,1,0,1,0,1,0,,,,260.75,13.389,133,4097.067,306,14,1,,,,,,,,,0,1,22,,,,,,
235,25,Woman,US,3,,,,,,,,,,,,,,,,,,,,,0,200,200,,,,,,,,,,,,,,,,,,,,,,,,,,,,,,,,,,,,,,,,,,,,,,,,,,,,,,,,,,,,,,,,,,,,,,,,,,,,,,,,,,,,,,,,,,,,,,,,,,,,,,,,9,0,0,0,1,0,0,1,0,1,1,1,0,,,,0.65,0.65,0,0.65,1,1,2,1,1,52,21082,1465,6654,199,11,3,4,24,,,,,,
236,25,Woman,US,2,,,,,,,,,,,,,,,,,,,,,11,54,54,,,,,,,,,,,,,,,,,,,,,,,,,,,,,,,,,,,,,,,,,,,,,,,,,,,,,,,,,,,,,,,,,,,,,,,,,,,,,,,,,,,,,,,,,,,,,,,,,,,,,,,,1,0,0,0,1,0,0,1,0,1,0,0,0,,,,184.583,12.338,11,666.233,54,4,1,,,,,,,,,,,,,,,,,
237,30,Man,US,1,,,,,,,,,,,,,,,,,0,9,21,52,0,0,0,0,0,0,0,1,1,1,2,1,1,1,1,3,3,3,3,3,3,3,,,,83,5,3,1,1,4,4,4,1,1,1,4,4,1,2,4,4,4,4,,,,,,,,,,,,,,,,,,,,,,,,,,,,,7,,,,1,,,,,,,0,0,25,580,,,,,,,,,,,,,,,,,,,,1,0,0,0,0,1,0,1,0,0,0,1,0,,,,,,,,,,0,,,,,,,,,1,1,6,,,,,,
238,25,Man,US,4,,,,,,,,,,,,,,,,,,,,,144,433,433,,,,,,,,,,,,,,,,,,,,,,,,,,,,,,,,,,,,,,,,,,,,,,,,,,,,,,,,,,,,,,,,,,,,,,,,,,1,,,,,,,,,,34,,,,,,,,,,,,,,,,,,,,3,0,0,0,1,0,0,1,0,1,0,1,0,,,,102.517,11.093,144,4803.183,433,7,1,1,1,,,,,,,5,3,31,,,,,,
239,20,Man,US,2,,,,,,,,,,,,,,,,,,12,25,83,0,78,78,,,,,1,1,1,2,1,1,3,2,4,2,4,3,5,3,4,,,,66,6,1,3,3,7,6,6,2,2,2,7,7,3,2,6,7,7,6,,,,,,,,,,,,,,,,,,,,,,,,1,-1,-1,0,0,5,,,,1,,,,,,,740,,,271,,,,,,,,,,,,,,,,1,1441.9032258064517,1,62,7,0,0,0,1,0,1,1,0,0,1,1,0,,,,,,,,,,1,2,1,83,131754,3002,66683,78,5,7,5,40,,,,,,
240,30,Man,US,4,,,,,,,,,,,,,,,,,,,,,0,328,328,,,,,,,,,,,,,,,,,,,,,,,,,,,,,,,,,,,,,,,,,,,,,,,,,,,,,,,,,,,,,,,,,,,,,,,,,,,,,,,,,,,,,,,,,,,,,,,,,,,,,,,,1,0,0,0,1,0,0,1,0,1,1,0,0,,,,2.5,2.5,0,2.5,1,1,2,1,1,35,203629,5636,81260,327,8,,,,,,,,,
241,30,Woman,US,3,,,,,,,,,,,,,,,,,,17,26,88,163,232,232,,,,,2,3,2,2,2,2,2,2,4,3,3,4,4,4,4,,,,64,6,3,5,3,3,6,6,6,5,2,6,5,4,5,6,6,5,6,,,,,,,,,,,,,,,,,,,,,,,,1,1,-1,-1,-1,7,,,,1,,,,,15,6,1500,120,600,4522,,,,,,,,,,,,,,,,,,,,1,0,0,0,1,0,0,1,0,1,0,1,0,,,,221.033,29.23,163,6781.4,232,10,1,1,1,,,,,,,1,1,7,,,,,,
242,20,Woman,US,2,,,,,,,,,,,,,,,,,,,,,612,1890,1890,,,,,,,,,,,,,,,,,,,,,,,,,,,,,,,,,,,,,,,,,,,,,,,,,,,,,,,,,,,,,,,,,,,,,,,,,,,,,,,,,,,,,,,,,,,,,,,,,,,,,,,,7,0,0,0,1,0,0,1,0,1,0,1,0,,,,115.633,4.571,612,8638.9,1890,9,1,,,,,,,,,2,4,27,,,,,,
243,30,Man,US,4,,,,,,,,,,,,,,,,,,,,,0,0,0,,,,,,,,,,,,,,,,,,,,,,,,,,,,,,,,,,,,,,,,,,,,,,,,,,,,,,,,,,,,,,,,,,,,,,,,,,,,,,,,,,,,,,,,,,,,,,,,,,,,,,,,9,0,0,0,0,0,0,1,0,0,0,1,0,,,,,,,,,,0,,,,,,,,,3,3,20,,,,,,
244,25,Man,US,1,,,,,,,,,,,,,,,,,,,,,0,0,0,,,,,,,,,,,,,,,,,,,,,,,,,,,,,,,,,,,,,,,,,,,,,,,,,,,,,,,,,,,,,,,,,,,,,,,,,,1,,,,,,,,,,15,,,,,,,,,,,,,,,,,,,,1,0,0,0,0,0,0,1,0,0,0,1,0,,,,,,,,,,0,,,,,,,,,1,1,4,,,,,,
245,20,Man,US,2,,,,,,,,,,,,,,,,,,9,25,58,0,115,115,,,,,1,1,1,2,1,1,1,1,3,4,4,4,3,3,4,,,,41,5,2,2,2,2,3,2,2,2,2,6,6,2,2,2,4,6,6,,,,,,,,,,,,,,,,,,,,,,,,0,0,0,0,0,4,,,,1,,,,,,,120,0,0,109,,,,,,,,,,,,,,,,,,,,7,0,0,0,1,0,0,1,0,0,1,1,0,,,,,,,,,,1,1,1,73,298447,709,191904,115,22,4,4,29,,,,,,
246,20,Man,US,4,,,,,,,,,,,,,,,,,,23,25,75,39,918,918,,,,,3,2,3,3,3,3,3,3,2,3,4,5,5,3,3,,,,87,7,2,1,2,7,7,7,1,1,1,7,7,1,2,1,7,7,7,,,,,,,,,,,,,,,,,,,,,,,,1,0,0,3,0,4,,,,1,,,,,,,7200,480,3600,203,,,,,,,,,,,,,,,,,,,,8,0,0,0,1,0,0,1,0,1,1,1,0,,,,235.117,29.221,39,3535.767,121,4,2,1,1,92,236868,10031,52553,797,20,12,4,83,,,,,,
247,25,Woman,US,2,,,,,,,,,,,,,,,,,,,,,0,0,0,,,,,,,,,,,,,,,,,,,,,,,,,,,,,,,,,,,,,,,,,,,,,,,,,,,,,,,,,,,,,,,,,,,,,,,,,,,,,,,,,,,,,,,,,,,,,,,,,,,,,,,,3,0,0,0,0,0,0,1,0,0,0,1,0,,,,,,,,,,0,,,,,,,,,2,1,11,,,,,,
248,20,Man,US,1,,,,,,,,,,,,,,,,,,,,,0,0,0,,,,,,,,,,,,,,,,,,,,,,,,,,,,,,,,,,,,,,,,,,,,,,,,,,,,,,,,,,,,,,,,,,,,,,,,,,1,,,,,,,,,,38,,,,,,,,,,,,,,,,,,,,1,0,0,0,0,0,0,1,0,0,0,1,0,,,,,,,,,,0,,,,,,,,,2,1,10,,,,,,
249,30,Man,US,2,,,,,,,,,,,,,,,,,,,,,0,0,0,,,,,,,,,,,,,,,,,,,,,,,,,,,,,,,,,,,,,,,,,,,,,,,,,,,,,,,,,,,,,,,,,,,,,,,,,,,,,,,,,,,,,,,,,,,,,,,,,,,,,,,,5,0,0,0,0,0,0,1,0,0,0,1,0,,,,,,,,,,0,,,,,,,,,1,2,29,,,,,,
250,20,Man,US,5,,,,,,,,,,,,,,,,,,,,,0,154,154,,,,,,,,,,,,,,,,,,,,,,,,,,,,,,,,,,,,,,,,,,,,,,,,,,,,,,,,,,,,,,,,,0,0,1,3,0,,,,,1,,,,,,,,,,704,,,,,,,,,,,,,,,,,,,,6,0,0,0,1,0,0,1,0,0,1,1,0,,,,,,,,,,1,1,1,46,19971,580,2744,154,44,2,3,53,,,,,,
251,30,Man,US,1,,,,,,,,,,,,,,,,,,,,,0,113,113,,,,,,,,,,,,,,,,,,,,,,,,,,,,,,,,,,,,,,,,,,,,,,,,,,,,,,,,,,,,,,,,,,,,,,,,,,1,,,,,,,,,,160,,,,,,,,,,,,,,,,,,,,1,0,0,0,1,0,0,1,0,0,1,1,0,,,,,,,,,,1,1,1,101,156899,1021,56811,113,3,1,1,10,,,,,,
252,30,Man,US,4,,,,,,,,,,,,,,,,,,,,,838,1551,1551,,,,,,,,,,,,,,,,,,,,,,,,,,,,,,,,,,,,,,,,,,,,,,,,,,,,,,,,,,,,,,,,,,,,,,,,,,,,,,,,,,,,,,,,,,,,,,,,,,,,,,,,5,0,0,0,1,0,0,1,0,1,0,1,0,,,,159.3,17.81,838,27624.067,1551,10,1,2,1,,,,,,,1,2,11,,,,,,
253,30,Woman,US,3,,,,,,,,,,,,,,,,,,,,,12,57,57,,,,,,,,,,,,,,,,,,,,,,,,,,,,,,,,,,,,,,,,,,,,,,,,,,,,,,,,,,,,,,,,,,,,,,,,,,,,,,,,,,,,,,,,,,,,,,,,,,,,,,,,5,0,0,0,1,0,0,1,0,1,0,1,0,,,,493.35,74.527,12,4248.033,57,3,1,1,1,22,6977,,,,,1,1,6,,,,,,
254,25,Man,US,2,,,,,,,,,,,,,,,,,,19,24,76,0,0,0,,,,,2,3,1,2,2,3,3,3,3,4,4,3,3,4,3,,,,61,6,3,1,3,7,5,4,5,3,5,6,5,3,1,1,7,6,5,,,,,,,,,,,,,,,,,,,,,,,,1,2,0,-1,0,4,,,,1,,,,,,,2460,270,1320,175,,,,,,,,,,,,,,,,,,,,7,0,0,0,0,0,0,1,0,0,0,1,0,,,,,,,,,,0,,,,,,,,,1,5,40,,,,,,
255,30,Non-binary,US,3,,,,,,,,,,,,,,,,,,,,,33,89,89,,,,,,,,,,,,,,,,,,,,,,,,,,,,,,,,,,,,,,,,,,,,,,,,,,,,,,,,,,,,,,,,,,,,,,,,,,1,,,,,,,,,,54,,,,,,,,,,,,,,,,,,,,4,0,0,0,1,0,0,1,0,1,0,1,0,,,,103.767,23.331,33,2076.417,89,4,1,2,1,218,127068,,,,,0,1,9,,,,,,
256,25,Woman,US,2,,,,,,,,,,,,,,,,,,,,,0,296,296,,,,,,,,,,,,,,,,,,,,,,,,,,,,,,,,,,,,,,,,,,,,,,,,,,,,,,,,,,,,,,,,,,,,,,,,,,,,,,,,,,,,,,,,,,,,,,,,,,,,,,,,9,0,0,0,1,0,0,1,0,0,1,1,0,,,,,,,,,,1,2,1,,,2693,10956,296,4,0,1,10,,,,,,
257,20,Man,US,1,,,,,,,,,,,,,,,,,7,25,23,76,0,0,0,0,3,3,1,3,3,3,3,3,3,4,3,2,2,3,4,4,4,4,,,,41,6,3,5,4,5,5,5,5,2,2,7,5,3,2,3,4,5,5,,,,,,,,,,,,,,,,,,,,,,,,0,1,-1,0,0,6,20,60,,1,,,,,,,2160,330,1080,789,,,,,,,,,,,,,,,,,,,,1,0,0,0,0,1,0,1,0,0,0,1,0,,,,,,,,,,0,,,,,,,,,1,1,4,,,,,,
258,20,Man,US,2,,,,,,,,,,,,,,,,,,11,23,76,0,0,0,,,,,1,1,1,2,2,1,2,1,3,3,4,3,4,3,3,,,,70,5,4,3,3,5,5,5,3,3,3,6,5,3,3,4,6,5,5,,,,,,,,,,,,,,,,,,,,,,,,1,1,0,1,0,7,,,,1,,,,,,,420,120,300,184,,,,,,,,,,,,,,,,,,,,7,0,0,0,0,0,0,1,0,0,0,1,0,,,,,,,,,,0,,,,,,,,,5,4,48,,,,,,
259,25,Man,US,2,,,,,,,,,,,,,,,,,,,,,0,92,92,,,,,,,,,,,,,,,,,,,,,,,,,,,,,,,,,,,,,,,,,,,,,,,,,,,,,,,,,,,,,,,,,,,,,,,,,,,,,,,,,,,,,,,,,,,,,,,,,,,,,,,,4,0,0,0,1,0,0,1,0,0,1,1,0,,,,,,,,,,1,1,1,76,55551,1645,25576,92,3,1,1,11,,,,,,
260,30,Man,US,3,,,,,,,,,,,,,,,,,,25,25,97,149,209,209,,,,,4,4,3,3,3,2,3,3,3,3,3,4,4,5,3,,,,94,4,4,4,6,7,5,6,4,4,6,5,6,7,4,6,7,5,7,,,,,,,,,,,,,,,,,,,,,,,,2,3,1,-2,1,6,,,,1,,,,,15,8,3340,225,1670,258,,,,,,,,,,,,,,,,,,,,1,0,0,0,1,0,0,1,0,1,0,1,0,,,,164.3,9.827,149,2053.767,209,6,1,,,,,,,,,1,1,11,,,,,,
261,20,Man,US,5,,,,,,,,,,,,,,,,,5,,,,0,0,0,0,2,2,1,,,,,,,,,,,,,,,,,,,,,,,,,,,,,,,,,,,,,,,,,,,,,,,,,,,,,,,,,,,,,1,-1,0,2,0,,,,,1,,,,,,,,,,110,,,,,,,,,,,,,,,,,,,,5,0,0,0,0,1,0,1,0,0,0,1,0,,,,,,,,,,0,,,,,,,,,2,3,20,,,,,,
262,25,Man,US,2,,,,,,,,,,,,,,,,,,,,,0,231,231,,,,,,,,,,,,,,,,,,,,,,,,,,,,,,,,,,,,,,,,,,,,,,,,,,,,,,,,,,,,,,,,,,,,,,,,,,,,,,,,,,,,,,,,,,,,,,,,,,,,,,,,6,0,0,0,1,0,0,1,0,0,1,1,0,,,,,,,,,,1,1,1,167,213286,1352,48956,231,10,1,2,26,,,,,,
263,25,Woman,US,1,,,,,,,,,,,,,,,,,0,10,35,80,27716,38809,38809,0,0,0,0,1,1,1,2,1,1,2,1,5,5,5,5,5,5,5,,,,100,7,4,7,1,6,7,5,3,1,1,7,7,1,1,1,7,7,7,,,,,,,,,,,,,,,,,,,,,,,,0,0,0,3,0,8,5,5,,1,,,,,,,900,240,600,631,,,,,,,,,,,,,,,,,,,,1,0,0,0,1,1,0,1,0,0,0,1,1,,,,,,,,,,1,,,,,,,,,1,1,10,1045,21.659,27716,840580.333,38809,61
264,30,Woman,US,3,,,,,,,,,,,,,,,,,,,,,0,1145,1145,,,,,,,,,,,,,,,,,,,,,,,,,,,,,,,,,,,,,,,,,,,,,,,,,,,,,,,,,,,,,,,,,,,,,,,,,,,,,,,,,,,,,,,,,,,,,,,,,,,,,,,,2,0,0,0,1,0,0,1,0,0,1,1,0,,,,,,,,,,1,1,1,112,167723,5472,29341,1145,51,24,1,144,,,,,,
265,20,Man,US,3,,,,,,,,,,,,,,,,,9,21,31,96,0,0,0,2,3,2,2,3,2,3,3,2,4,2,2,4,5,5,4,4,5,4,,,,100,7,7,3,3,6,5,6,7,3,5,6,5,6,5,6,7,3,6,,,,,,,,,,,,,,,,,,,,,,,,3,2,3,3,2,10,40,50,5,1,,,,,,,6005,330,3005,375,,,,,,,,,,,,,,,,,,,,5,0,0,0,0,1,0,1,0,0,0,1,0,,,,,,,,,,0,,,,,,,,,1,2,9,,,,,,
266,25,Woman,US,3,,,,,,,,,,,,,,,,,,29,21,86,41,162,162,,,,,3,3,5,3,5,2,4,4,2,3,4,4,4,1,3,,,,47,6,3,6,4,6,6,5,3,4,6,6,4,6,4,3,5,4,5,,,,,,,,,,,,,,,,,,,,,,,,0,-1,1,0,-1,3,,,,1,,,,,,,565,70,270,191,,,,,,,,,,,,,,,,,,,,12,0,0,0,1,0,0,1,0,1,1,1,0,,,,168.7,14.094,41,1183.867,84,8,2,1,1,20,43123,1307,31282,78,9,8,7,64,,,,,,
267,25,Woman,US,4,,,,,,,,,,,,,,,,,,,,,0,69,69,,,,,,,,,,,,,,,,,,,,,,,,,,,,,,,,,,,,,,,,,,,,,,,,,,,,,,,,,,,,,,,,,,,,,,,,,,,,,,,,,,,,,,,,,,,,,,,,,,,,,,,,2,0,0,0,1,0,0,1,0,0,1,1,0,,,,,,,,,,1,1,1,88,66713,975,8305,69,9,0,2,16,,,,,,
268,20,Woman,US,4,,,,,,,,,,,,,,,,,,,,,5,15,15,,,,,,,,,,,,,,,,,,,,,,,,,,,,,,,,,,,,,,,,,,,,,,,,,,,,,,,,,,,,,,,,,,,,,,,,,,,,,,,,,,,,,,,,,,,,,,,,,,,,,,,,,,,0,1,0,0,0,0,1,0,0,0,,,,72.067,20.528,5,307.917,15,1,1,,,,,,,,,,,,,,,,,
269,30,Woman,US,4,,,,,,,,,,,,,,,,,,,,,117,306,306,,,,,,,,,,,,,,,,,,,,,,,,,,,,,,,,,,,,,,,,,,,,,,,,,,,,,,,,,,,,,,,,,,,,,,,,,,,,,,,,,,,,,,,,,,,,,,,,,,,,,,,,,,,0,1,0,0,0,0,1,1,0,0,,,,5094.533,27.502,117,8030.717,292,5,2,1,1,12,11349,209,1573,14,2,,,,,,,,,
270,25,Man,US,6,,,,,,,,,,,,,,,,,,,,,7,19,19,,,,,,,,,,,,,,,,,,,,,,,,,,,,,,,,,,,,,,,,,,,,,,,,,,,,,,,,,,,,,,,,,,,,,,,,,,,,,,,,,,,,,,,,,,,,,,,,,,,,,,,,1,0,0,0,1,0,0,1,0,1,0,1,0,,,,20.983,6.16,7,117.033,19,3,1,,,,,,,,,1,1,4,,,,,,
271,30,Woman,US,2,,,,,,,,,,,,,,,,,,17,27,65,0,0,0,,,,,2,2,1,4,2,1,3,2,5,4,4,4,3,3,4,,,,68,5,3,1,2,5,6,5,5,1,1,5,3,2,2,5,6,3,5,,,,,,,,,,,,,,,,,,,,,,,,-2,1,1,2,2,7,,,,1,,,,,,,4442,244,2105,200,,,,,,,,,,,,,,,,,,,,8,0,0,0,0,0,0,1,0,0,0,1,0,,,,,,,,,,0,,,,,,,,,3,3,23,,,,,,
272,25,Man,US,4,,,,,,,,,,,,,,,,,,8,27,72,194,376,376,,,,,1,1,1,1,1,1,1,1,4,4,4,3,5,3,4,,,,50,4,4,4,4,4,4,4,4,4,4,4,4,4,4,4,4,4,4,,,,,,,,,,,,,,,,,,,,,,,,0,0,0,0,0,4,,,,1,,,,,,,900,150,630,1642,,,,,,,,,,,,,,,,,,,,8,0,0,0,1,0,0,1,0,1,1,1,0,,,,887.583,10.281,194,3598.3,350,7,2,1,1,7,1233,580,969,26,3,5,5,47,,,,,,
273,25,Woman,US,2,,,,,,,,,,,,,,,,,,,,,0,0,0,,,,,,,,,,,,,,,,,,,,,,,,,,,,,,,,,,,,,,,,,,,,,,,,,,,,,,,,,,,,,,,,,,,,,,,,,,,,,,,,,,,,,,,,,,,,,,,,,,,,,,,,6,0,0,0,0,0,0,1,0,0,0,1,0,,,,,,,,,,0,,,,,,,,,2,4,30,,,,,,
274,25,Other,US,3,,,,,,,,,,,,,,,,,,19,24,69,0,498,498,,,,,2,3,2,3,2,3,3,1,2,3,5,3,4,3,4,,,,100,7,1,3,1,7,3,7,1,1,1,7,7,1,1,2,7,6,6,,,,,,,,,,,,,,,,,,,,,,,,0,0,0,0,0,,,,,1,,,,,,,1500,510,756,180,,,,,,,,,,,,,,,,,,,,3,0,0,0,1,0,0,1,0,0,1,1,0,,,,,,,,,,1,1,1,25,41424,3806,54030,498,9,0,1,8,,,,,,
275,25,Man,US,3,,,,,,,,,,,,,,,,,,,,,0,0,0,,,,,,,,,,,,,,,,,,,,,,,,,,,,,,,,,,,,,,,,,,,,,,,,,,,,,,,,,,,,,,,,,,,,,,,,,,,,,,,,,,,,,,,,,,,,,,,,,,,,,,,,3,0,0,0,0,0,0,1,0,0,0,1,0,,,,,,,,,,0,,,,,,,,,1,2,9,,,,,,
276,30,Man,US,5,,,,,,,,,,,,,,,,,,,,,0,5,5,,,,,,,,,,,,,,,,,,,,,,,,,,,,,,,,,,,,,,,,,,,,,,,,,,,,,,,,,,,,,,,,,,,,,,,,,,1,,,,,,,,,,11,,,,,,,,,,,,,,,,,,,,4,0,0,0,1,0,0,1,0,0,1,1,0,,,,,,,,,,1,1,1,,,295,315,5,2,2,1,16,,,,,,
277,30,Woman,US,2,,,,,,,,,,,,,,,,,,19,21,,386,486,486,,,,,2,3,2,3,2,2,3,2,2,3,3,3,3,3,4,,,,,,,,,,,,,,,,,,,,,,,,,,,,,,,,,,,,,,,,,,,,,,,,,,,,,,,1,,,,,,,,,,116,,,,,,,,,,,,,,,,,,,,3,0,0,0,1,0,0,1,0,1,0,0,0,,,,256,30.2,386,14677.4,486,19,1,,,,,,,,,,,,,,,,,
278,20,Woman,US,4,,,,,,,,,,,,,,,,,,,,,0,392,392,,,,,,,,,,,,,,,,,,,,,,,,,,,,,,,,,,,,,,,,,,,,,,,,,,,,,,,,,,,,,,,,,,,,,,,,,,,,,,,,,,,,,,,,,,,,,,,,,,,,,,,,3,0,0,0,1,0,0,1,0,0,1,1,0,,,,,,,,,,1,1,1,194,204465,2735,81820,392,15,0,1,16,,,,,,
279,30,Man,US,2,,,,,,,,,,,,,,,,,,,,,978,2812,2812,,,,,,,,,,,,,,,,,,,,,,,,,,,,,,,,,,,,,,,,,,,,,,,,,,,,,,,,,,,,,,,,,,,,,,,,,,,,,,,,,,,,,,,,,,,,,,,,,,,,,,,,1,0,0,0,1,0,0,1,0,1,0,0,0,,,,102.6,16.926,978,47595.5,2812,12,1,,,,,,,,,,,,,,,,,
280,25,Woman,US,2,,,,,,,,,,,,,,,,,,,,,23,100,100,,,,,,,,,,,,,,,,,,,,,,,,,,,,,,,,,,,,,,,,,,,,,,,,,,,,,,,,,,,,,,,,,,,,,,,,,,,,,,,,,,,,,,,,,,,,,,,,,,,,,,,,4,0,0,0,1,0,0,1,0,1,0,0,0,,,,34.95,9.67,23,967.017,100,2,1,,,,,,,,,,,,,,,,,
281,25,Woman,US,2,,,,,,,,,,,,,,,,,,,,,94,187,187,,,,,,,,,,,,,,,,,,,,,,,,,,,,,,,,,,,,,,,,,,,,,,,,,,,,,,,,,,,,,,,,,,,,,,,,,,,,,,,,,,,,,,,,,,,,,,,,,,,,,,,,,,,0,1,0,0,0,0,1,0,0,0,,,,128.533,24.719,94,4622.367,187,2,1,,,,,,,,,,,,,,,,,
282,25,Woman,US,1,,,,,,,,,,,,,,,,,,,,,0,0,0,,,,,,,,,,,,,,,,,,,,,,,,,,,,,,,,,,,,,,,,,,,,,,,,,,,,,,,,,,,,,,,,,,,,,,,,,,1,,,,,,,,,,28,,,,,,,,,,,,,,,,,,,,1,0,0,0,0,0,0,1,0,0,0,1,0,,,,,,,,,,0,,,,,,,,,2,1,7,,,,,,
283,25,Man,US,1,,,,,,,,,,,,,,,,,0,,27,,0,0,0,0,0,0,0,,,,,,,,,4,3,4,4,4,4,4,,,,,,,,,,,,,,,,,,,,,,,,,,,,,,,,,,,,,,,,,,,,,,0,1,1,1,0,,60,120,,1,,,,,,,,,,207,,,,,,,,,,,,,,,,,,,,1,0,0,0,0,1,0,1,0,0,0,1,0,,,,,,,,,,0,,,,,,,,,1,1,4,,,,,,
284,30,Woman,US,2,,,,,,,,,,,,,,,,,,,,,29,63,63,,,,,,,,,,,,,,,,,,,,,,,,,,,,,,,,,,,,,,,,,,,,,,,,,,,,,,,,,,,,,,,,,,,,,,,,,,,,,,,,,,,,,,,,,,,,,,,,,,,,,,,,5,0,0,0,1,0,0,1,0,1,0,1,0,,,,135.167,17.299,29,1089.817,63,4,1,,,,,,,,,4,2,30,,,,,,
285,30,Woman,US,3,,,,,,,,,,,,,,,,,,,,,18,40,40,,,,,,,,,,,,,,,,,,,,,,,,,,,,,,,,,,,,,,,,,,,,,,,,,,,,,,,,,,,,,,,,,,,,,,,,,,,,,,,,,,,,,,,,,,,,,,,,,,,,,,,,2,0,0,0,1,0,0,1,0,1,0,1,0,,,,76.05,6.158,18,246.317,40,3,1,,,,,,,,,2,2,20,,,,,,
286,30,Woman,US,3,,,,,,,,,,,,,,,,,,,,,10,221,221,,,,,,,,,,,,,,,,,,,,,,,,,,,,,,,,,,,,,,,,,,,,,,,,,,,,,,,,,,,,,,,,,,,,,,,,,,,,,,,,,,,,,,,,,,,,,,,,,,,,,,,,2,0,0,0,1,0,0,1,0,1,1,0,0,,,,210.267,38.762,10,775.233,20,5,2,1,1,53,163958,3351,57454,201,5,,,,,,,,,
287,25,Man,US,1,,,,,,,,,,,,,,,,,,,,,0,0,0,,,,,,,,,,,,,,,,,,,,,,,,,,,,,,,,,,,,,,,,,,,,,,,,,,,,,,,,,,,,,,,,,,,,,,,,,,1,,,,,,,,,,20,,,,,,,,,,,,,,,,,,,,1,0,0,0,0,0,0,1,0,0,0,1,0,,,,,,,,,,0,,,,,,,,,0,1,9,,,,,,
288,25,Man,US,4,,,,,,,,,,,,,,,,,,,,,12,18,18,,,,,,,,,,,,,,,,,,,,,,,,,,,,,,,,,,,,,,,,,,,,,,,,,,,,,,,,,,,,,,,,,,,,,,,,,,,,,,,,,,,,,,,,,,,,,,,,,,,,,,,,4,0,0,0,1,0,0,1,0,1,1,1,0,,,,134.067,14.82,12,251.933,17,3,2,1,1,106,56586,5,712,1,1,3,1,28,,,,,,
289,25,Woman,US,3,,,,,,,,,,,,,,,,,,,,,246,671,671,,,,,,,,,,,,,,,,,,,,,,,,,,,,,,,,,,,,,,,,,,,,,,,,,,,,,,,,,,,,,,,,,,,,,,,,,,,,,,,,,,,,,,,,,,,,,,,,,,,,,,,,7,0,0,0,1,0,0,1,0,1,1,1,0,,,,286.6,45.313,246,15225.333,336,13,2,1,1,63,80168,3584,10326,335,22,1,3,113,,,,,,
290,25,Woman,US,2,,,,,,,,,,,,,,,,,,,,,0,0,0,,,,,,,,,,,,,,,,,,,,,,,,,,,,,,,,,,,,,,,,,,,,,,,,,,,,,,,,,,,,,,,,,,,,,,,,,,,,,,,,,,,,,,,,,,,,,,,,,,,,,,,,3,0,0,0,0,0,0,1,0,0,0,1,0,,,,,,,,,,0,,,,,,,,,0,2,58,,,,,,
291,25,Man,US,2,,,,,,,,,,,,,,,,,,,,,1357,2487,2487,,,,,,,,,,,,,,,,,,,,,,,,,,,,,,,,,,,,,,,,,,,,,,,,,,,,,,,,,,,,,,,,,,,,,,,,,,,,,,,,,,,,,,,,,,,,,,,,,,,,,,,,4,0,0,0,1,0,0,1,0,1,0,0,0,,,,66.35,6.032,1357,15001.15,2487,27,1,,,,,,,,,,,,,,,,,
292,25,Woman,US,2,,,,,,,,,,,,,,,,,,,,,0,9,9,,,,,,,,,,,,,,,,,,,,,,,,,,,,,,,,,,,,,,,,,,,,,,,,,,,,,,,,,,,,,,,,,,,,,,,,,,,,,,,,,,,,,,,,,,,,,,,,,,,,,,,,2,0,0,0,1,0,0,1,0,0,1,1,0,,,,,,,,,,1,1,1,26,11235,108,3978,9,2,0,1,5,,,,,,
293,25,Woman,US,2,,,,,,,,,,,,,,,,,,,,,10,12,12,,,,,,,,,,,,,,,,,,,,,,,,,,,,,,,,,,,,,,,,,,,,,,,,,,,,,,,,,,,,,,,,,,,,,,,,,,,,,,,,,,,,,,,,,,,,,,,,,,,,,,,,3,0,0,0,1,0,0,1,0,1,1,1,0,,,,25.7,8.659,10,95.25,11,1,2,1,1,6,25290,81,17228,1,1,2,2,29,,,,,,
294,25,Woman,US,2,,,,,,,,,,,,,,,,,,,,,142,152,152,,,,,,,,,,,,,,,,,,,,,,,,,,,,,,,,,,,,,,,,,,,,,,,,,,,,,,,,,,,,,,,,,,,,,,,,,,,,,,,,,,,,,,,,,,,,,,,,,,,,,,,,,,,0,1,0,0,0,0,1,0,0,0,,,,290.967,65.025,142,9883.833,152,3,1,,,,,,,,,,,,,,,,,
295,25,Woman,US,4,,,,,,,,,,,,,,,,,,,,,40,60,60,,,,,,,,,,,,,,,,,,,,,,,,,,,,,,,,,,,,,,,,,,,,,,,,,,,,,,,,,,,,,,,,,,,,,,,,,,,,,,,,,,,,,,,,,,,,,,,,,,,,,,,,2,0,0,0,1,0,0,1,0,1,0,1,0,,,,73.533,14.388,40,863.3,60,5,1,,,,,,,,,1,1,9,,,,,,
296,20,Man,US,3,,,,,,,,,,,,,,,,,,,,,43,55,55,,,,,,,,,,,,,,,,,,,,,,,,,,,,,,,,,,,,,,,,,,,,,,,,,,,,,,,,,,,,,,,,,,,,,,,,,,,,,,,,,,,,,,,,,,,,,,,,,,,,,,,,2,0,0,0,1,0,0,1,0,1,1,0,0,,,,158.833,13.641,43,586.567,43,3,2,1,1,69,70669,584,51060,12,3,,,,,,,,,
297,25,Woman,US,3,,,,,,,,,,,,,,,,,,,,,50,79,79,,,,,,,,,,,,,,,,,,,,,,,,,,,,,,,,,,,,,,,,,,,,,,,,,,,,,,,,,,,,,,,,,,,,,,,,,,,,,,,,,,,,,,,,,,,,,,,,,,,,,,,,3,0,0,0,1,0,0,1,0,1,0,1,0,,,,137.633,29.882,50,2360.683,79,3,1,,,,,,,,,2,1,21,,,,,,
298,30,Woman,US,2,,,,,,,,,,,,,,,,,,,,,53,181,181,,,,,,,,,,,,,,,,,,,,,,,,,,,,,,,,,,,,,,,,,,,,,,,,,,,,,,,,,,,,,,,,,,,,,,,,,,,,,,,,,,,,,,,,,,,,,,,,,,,,,,,,3,0,0,0,1,0,0,1,0,1,1,0,0,,,,94.217,10.972,53,987.467,90,4,2,1,1,50,63397,1713,4874,91,3,,,,,,,,,
299,20,Man,US,3,,,,,,,,,,,,,,,,,,,,,739,1367,1367,,,,,,,,,,,,,,,,,,,,,,,,,,,,,,,,,,,,,,,,,,,,,,,,,,,,,,,,,,,,,,,,,,,,,,,,,,,,,,,,,,,,,,,,,,,,,,,,,,,,,,,,2,0,0,0,1,0,0,1,0,1,1,1,0,,,,231.533,26.355,739,35975.25,1365,8,2,1,1,13,2021,1,516,2,2,1,1,7,,,,,,
300,25,Woman,US,2,,,,,,,,,,,,,,,,,,,,,232,486,486,,,,,,,,,,,,,,,,,,,,,,,,,,,,,,,,,,,,,,,,,,,,,,,,,,,,,,,,,,,,,,,,,,,,,,,,,,,,,,,,,,,,,,,,,,,,,,,,,,,,,,,,1,0,0,0,1,0,0,1,0,1,0,0,0,,,,418.317,36.348,232,17665.133,486,2,1,,,,,,,,,,,,,,,,,
301,30,Woman,US,2,,,,,,,,,,,,,,,,,,,,,0,91,91,,,,,,,,,,,,,,,,,,,,,,,,,,,,,,,,,,,,,,,,,,,,,,,,,,,,,,,,,,,,,,,,,,,,,,,,,,,,,,,,,,,,,,,,,,,,,,,,,,,,,,,,3,0,0,0,1,0,0,1,0,0,1,1,0,,,,,,,,,,1,1,1,14,23197,1395,5716,91,4,1,2,10,,,,,,
302,30,Woman,US,4,,,,,,,,,,,,,,,,,,,,,226,597,597,,,,,,,,,,,,,,,,,,,,,,,,,,,,,,,,,,,,,,,,,,,,,,,,,,,,,,,,,,,,,,,,,,,,,,,,,,,,,,,,,,,,,,,,,,,,,,,,,,,,,,,,2,0,0,0,1,0,0,1,0,1,0,1,0,,,,1250.683,70.154,226,41882.183,597,4,1,,,,,,,,,0,1,4,,,,,,
303,25,Man,US,4,,,,,,,,,,,,,,,,,,,,,2,408,408,,,,,,,,,,,,,,,,,,,,,,,,,,,,,,,,,,,,,,,,,,,,,,,,,,,,,,,,,,,,,,,,,,,,,,,,,,,,,,,,,,,,,,,,,,,,,,,,,,,,,,,,4,0,0,0,1,0,0,1,0,1,1,1,0,,,,68.45,32.31,2,258.483,8,1,2,1,1,53,53431,2522,7621,400,32,0,2,16,,,,,,
304,25,Woman,US,4,,,,,,,,,,,,,,,,,,,,,0,5,5,,,,,,,,,,,,,,,,,,,,,,,,,,,,,,,,,,,,,,,,,,,,,,,,,,,,,,,,,,,,,,,,,,,,,,,,,,,,,,,,,,,,,,,,,,,,,,,,,,,,,,,,2,0,0,0,1,0,0,1,0,1,1,1,0,,,,4,2.058,0,4.117,2,1,2,2,1,9,632,18,24,3,2,2,1,12,,,,,,
305,30,Man,US,2,,,,,,,,,,,,,,,,,,,,,11,48,48,,,,,,,,,,,,,,,,,,,,,,,,,,,,,,,,,,,,,,,,,,,,,,,,,,,,,,,,,,,,,,,,,,,,,,,,,,,,,,,,,,,,,,,,,,,,,,,,,,,,,,,,1,0,0,0,1,0,0,1,0,1,0,0,0,,,,102.867,13.412,11,643.8,48,4,1,,,,,,,,,,,,,,,,,
306,30,Woman,US,4,,,,,,,,,,,,,,,,,,,,,792,1525,1525,,,,,,,,,,,,,,,,,,,,,,,,,,,,,,,,,,,,,,,,,,,,,,,,,,,,,,,,,,,,,,,,,,,,,,,,,,,,,,,,,,,,,,,,,,,,,,,,,,,,,,,,12,0,0,0,1,0,0,1,0,1,0,1,0,,,,258.217,31.626,792,48229.217,1525,14,1,,,,,,,,,3,5,58,,,,,,
307,30,Woman,US,2,,,,,,,,,,,,,,,,,,,,,29,82,82,,,,,,,,,,,,,,,,,,,,,,,,,,,,,,,,,,,,,,,,,,,,,,,,,,,,,,,,,,,,,,,,,,,,,,,,,,,,,,,,,,,,,,,,,,,,,,,,,,,,,,,,2,0,0,0,1,0,0,1,0,1,0,0,0,,,,146.733,16.163,29,1325.367,82,6,1,,,,,,,,,,,,,,,,,
308,30,Woman,US,4,,,,,,,,,,,,,,,,,,,,,119,231,231,,,,,,,,,,,,,,,,,,,,,,,,,,,,,,,,,,,,,,,,,,,,,,,,,,,,,,,,,,,,,,,,,,,,,,,,,,,,,,,,,,,,,,,,,,,,,,,,,,,,,,,,4,0,0,0,1,0,0,1,0,1,0,1,0,,,,239.6,16.019,119,3700.483,231,14,1,2,1,3,0,,,,,0,1,1,,,,,,
309,30,Man,US,4,,,,,,,,,,,,,,,,,,,,,0,56,56,,,,,,,,,,,,,,,,,,,,,,,,,,,,,,,,,,,,,,,,,,,,,,,,,,,,,,,,,,,,,,,,,,,,,,,,,,,,,,,,,,,,,,,,,,,,,,,,,,,,,,,,8,0,0,0,1,0,0,1,0,0,1,1,0,,,,,,,,,,1,1,1,38,32809,498,12896,56,11,9,2,141,,,,,,
310,25,Man,US,4,,,,,,,,,,,,,,,,,,,,,0,0,0,,,,,,,,,,,,,,,,,,,,,,,,,,,,,,,,,,,,,,,,,,,,,,,,,,,,,,,,,,,,,,,,,,,,,,,,,,1,,,,,,,,,,36,,,,,,,,,,,,,,,,,,,,3,0,0,0,0,0,0,1,0,0,0,1,0,,,,,,,,,,0,,,,,,,,,2,2,27,,,,,,
311,25,Woman,US,1,,,,,,,,,,,,,,,,,,,,,0,0,0,,,,,,,,,,,,,,,,,,,,,,,,,,,,,,,,,,,,,,,,,,,,,,,,,,,,,,,,,,,,,,,,,,,,,,,,,,1,,,,,,,,,,141,,,,,,,,,,,,,,,,,,,,2,0,0,0,0,0,0,1,0,0,0,1,0,,,,,,,,,,0,,,,,,,,,1,1,7,,,,,,
312,20,Man,US,3,,,,,,,,,,,,,,,,,5,,17,75,0,0,0,1,2,2,0,,,,,,,,,3,2,2,2,3,3,2,,,,,4,4,3,4,5,6,4,4,4,4,4,4,4,4,4,5,4,4,,,,,,,,,,,,,,,,,,,,,,,,-1,0,0,-1,-1,4,,,,1,,,,,,,600,60,300,398,,,,,,,,,,,,,,,,,,,,3,0,0,0,0,1,0,1,0,0,0,1,0,,,,,,,,,,0,,,,,,,,,0,1,9,,,,,,
313,25,Man,US,5,,,,,,,,,,,,,,,,,8,24,35,126,81,122,122,2,2,2,2,3,3,3,3,3,3,3,3,5,5,5,5,5,5,5,,,,100,7,7,7,7,7,7,7,7,7,7,7,7,7,7,7,7,7,7,,,,,,,,,,,,,,,,,,,,,,,,3,3,3,3,3,10,45,30,,1,,,,,,,2520,308,1470,190,,,,,,,,,,,,,,,,,,,,7,0,0,0,1,1,0,1,0,1,0,1,0,,,,168.65,17.44,81,2127.717,122,5,1,,,,,,,,,1,1,8,,,,,,
314,30,Non-binary,UK,3,,,,,,,,,,,,,,,,,6,16,23,74,50,347,347,2,2,1,1,1,1,2,3,2,3,3,1,2,3,4,5,4,2,3,,,,65,6,2,3,2,4,4,4,6,5,6,5,6,1,2,2,5,5,6,,,,,,,,,,,,,,,,,,,,,,,,1,1,0,2,0,3,20,20,,2,,,,,,,3600,270,1800,526,5,4,4,5,5,4,4,4,5,3,5,5,3,4,3,0.9757575757575757,955.1878787878788,1,165,7,0,0,0,1,1,1,1,0,1,1,0,0,,,,193.65,30.283,50,8782.183,290,4,2,1,1,308,629276,1710,109518,57,9,,,,,,,,,
315,25,Woman,UK,1,,,,,,,,,,,,,,,,,1,8,26,51,0,13,13,0,1,0,0,1,1,1,1,1,1,1,1,4,4,3,3,4,3,5,,,,92,7,1,1,1,6,5,2,2,1,1,5,3,3,1,2,5,2,3,,,,,,,,,,,,,,,,,,,,,,,,0,-1,0,0,0,8,2,2,,2,,,,,,,3000,180,1800,750,5,5,5,5,5,3,2,1,5,2,2,5,5,5,3,0.9692307692307692,1411.6153846153845,1,65,7,0,0,0,1,1,1,1,0,0,1,0,0,,,,,,,,,,1,1,1,53,76694,366,3592,13,4,,,,,,,,,
316,20,Man,UK,1,,,,,,,,,,,,,,,,,10,32,16,65,0,192,192,3,4,2,1,4,4,4,4,4,4,4,4,2,3,2,2,3,2,2,,,,35,6,2,2,3,6,5,5,1,1,1,6,5,1,1,1,6,7,6,,,,,,,,,,,,,,,,,,,,,,,,0,-1,-2,2,0,3,60,60,,2,,,,,,,7230,600,3000,532,5,5,4,4,5,4,3,5,4,3,2,5,3,3,1,0.922077922077922,1058.6038961038962,1,154,7,0,0,0,1,1,1,1,0,0,1,0,0,,,,,,,,,,1,1,1,682,783404,4061,52007,192,22,,,,,,,,,
317,20,Woman,UK,2,,,,,,,,,,,,,,,,,3,39,16,69,0,22,22,2,1,0,0,5,5,4,5,5,5,5,5,3,1,2,2,5,1,2,,,,23,6,4,1,5,4,2,5,2,2,2,6,4,3,3,2,6,6,6,,,,,,,,,,,,,,,,,,,,,,,,0,2,1,1,0,2,15,30,5,2,,,,,,,2100,210,900,384,5,2,3,3,4,3,3,4,2,2,2,2,4,4,2,0.9936708860759493,1019.746835443038,1,158,7,0,0,0,1,1,1,1,0,0,1,0,0,,,,,,,,,,1,9,1,78,35979,588,22427,22,2,,,,,,,,,
318,20,Man,UK,1,,,,,,,,,,,,,,,,,4,17,27,66,0,40,40,2,1,1,0,2,1,2,2,1,3,3,3,4,4,3,5,4,3,4,,,,29,6,2,2,2,4,2,1,2,1,1,6,7,2,6,5,6,5,6,,,,,,,,,,,,,,,,,,,,,,,,2,2,-2,2,1,8,60,50,,2,,,,,,,1410,0,750,439,5,2,1,3,4,4,3,4,4,5,5,3,5,5,5,0.9714285714285714,871.8628571428571,1,175,6,0,0,0,1,1,1,1,0,0,1,0,0,,,,,,,,,,1,1,1,53,458951,1480,293937,40,5,,,,,,,,,
319,35,Man,UK,3,,,,,,,,,,,,,,,,,3,22,23,65,0,0,0,1,1,1,0,3,4,2,2,3,2,3,3,3,3,3,4,4,3,3,,,,70,5,1,2,2,3,5,5,3,2,5,5,2,2,2,4,6,5,6,,,,,,,,,,,,,,,,,,,,,,,,0,1,-1,-1,0,5,30,60,,1,,,,,,,3000,300,1500,757,4,4,5,4,4,4,4,3,3,4,4,5,4,4,3,0.9642857142857143,932.2380952380952,1,84,6,0,0,0,0,1,1,1,0,0,0,0,0,,,,,,,,,,0,1,1,78,169927,,,,,,,,,,,,,
320,30,Other,US,3,,,,,,,,,,,,,,,,,0,8,35,69,0,73,73,0,0,0,0,1,1,1,1,1,1,1,1,5,5,5,5,5,5,5,,,,100,7,1,4,1,7,7,7,1,1,1,7,7,1,1,1,4,7,4,,,,,,,,,,,,,,,,,,,,,,,,0,0,0,3,0,8,1,1,5,1,,,,,,,9840,720,4920,715,5,3,3,4,5,3,3,5,3,3,3,3,1,3,1,0.953125,1411.0625,1,64,2,0,0,0,1,1,1,1,0,0,1,0,0,,,,,,,,,,1,1,1,2053,1261907,3146,463612,73,2,,,,,,,,,
321,20,Man,UK,3,,,,,,,,,,,,,,,,,6,14,25,69,0,0,0,1,3,1,1,2,1,2,2,2,1,2,2,4,4,4,4,3,3,3,,,,94,4,4,4,4,4,4,4,4,1,4,4,4,4,4,4,4,4,4,,,,,,,,,,,,,,,,,,,,,,,,0,0,0,0,0,5,45,45,,2,,,,,,,6000,720,2700,562,3,4,3,4,3,3,3,4,3,3,4,4,3,3,3,0.9424460431654677,1232.1510791366907,1,139,7,0,0,0,0,1,1,1,0,0,0,0,0,,,,,,,,,,0,2,1,,,,,,,,,,,,,,,
322,25,Man,US,1,,,,,,,,,,,,,,,,,3,31,18,57,0,47,47,0,2,1,0,4,4,3,4,4,4,4,4,2,3,3,3,3,2,2,,,,30,6,2,2,3,3,5,2,1,1,1,6,6,1,3,2,5,3,5,,,,,,,,,,,,,,,,,,,,,,,,1,1,-1,3,0,3,30,30,,1,,,,,,,1770,150,780,1015,4,4,2,4,4,3,2,2,2,4,4,5,2,3,2,0.9896907216494846,746.7628865979382,1,97,2,0,0,0,1,1,1,1,0,0,1,0,0,,,,,,,,,,1,1,1,206,328926,1688,105720,47,6,,,,,,,,,
323,20,Man,UK,1,,,,,,,,,,,,,,,,,7,40,13,91,0,95,95,4,0,3,0,5,5,5,5,5,5,5,5,1,3,1,1,3,1,3,,,,35,5,7,7,7,4,1,1,4,5,4,7,5,3,3,7,7,7,7,,,,,,,,,,,,,,,,,,,,,,,,-3,1,1,0,-3,5,10,10,,2,,,,,,,,360,,831,1,3,1,3,4,1,1,1,1,1,1,1,5,5,3,0.9529411764705882,928.4,1,170,6,0,0,0,1,1,1,1,0,0,1,0,0,,,,,,,,,,1,1,1,729,338225,2949,4903,95,14,,,,,,,,,
324,20,Man,US,1,,,,,,,,,,,,,,,,,0,8,32,62,0,4,4,0,0,0,0,1,1,1,1,1,1,1,1,5,5,5,4,5,5,3,,,,100,2,1,3,2,1,2,1,7,6,7,3,3,5,1,1,6,5,6,,,,,,,,,,,,,,,,,,,,,,,,1,3,0,3,0,9,15,15,3,2,,,,,,,180,0,90,470,5,3,1,1,1,2,1,5,3,1,2,1,5,5,1,0.8835978835978836,768.031746031746,1,189,3,0,0,0,1,1,1,1,0,0,1,0,0,,,,,,,,,,1,1,1,211,650625,4549,456743,4,2,,,,,,,,,
325,35,Woman,UK,4,,,,,,,,,,,,,,,,,0,10,31,50,0,15,15,0,0,0,0,1,2,1,1,1,1,2,1,4,4,5,5,4,5,4,,,,82,6,1,1,2,1,1,2,1,1,1,6,5,3,1,1,5,7,5,,,,,,,,,,,,,,,,,,,,,,,,0,0,0,-1,0,8,30,30,7,2,,,,,,,900,90,360,427,1,4,3,4,3,4,1,2,1,4,1,5,3,3,1,0.9333333333333333,1113.06,1,150,7,0,0,0,1,1,1,1,0,1,1,0,0,,,,126.567,20.162,0,282.267,14,3,2,1,1,43,15232,32,32,1,1,,,,,,,,,
326,20,Woman,US,3,,,,,,,,,,,,,,,,,6,22,22,64,0,2,2,0,1,1,4,3,2,3,4,2,2,3,3,4,3,2,5,2,3,3,,,,60,7,2,1,1,5,7,4,1,1,1,7,5,1,4,3,4,3,7,,,,,,,,,,,,,,,,,,,,,,,,3,2,0,-2,-1,1,15,30,,2,,,,,,,10,,10,707,5,5,5,5,5,5,3,2,5,5,2,2,3,2,1,0.9823529411764705,922.4058823529411,1,170,5,0,0,0,1,1,1,1,0,0,1,0,0,,,,,,,,,,1,1,1,178,62017,6,1741,2,1,,,,,,,,,
327,25,Man,US,4,,,,,,,,,,,,,,,,,5,12,27,76,0,48,48,1,1,3,0,1,1,1,1,2,2,2,2,4,4,4,3,4,4,4,,,,48,6,3,2,2,5,6,5,5,5,3,6,5,2,2,3,5,5,6,,,,,,,,,,,,,,,,,,,,,,,,1,1,0,1,0,1,5,5,5,1,,,,,,,,,,538,4,4,3,4,4,4,4,3,2,4,4,4,4,4,3,0.9666666666666667,835.6,1,90,4,0,0,0,1,1,1,1,0,0,1,0,0,,,,,,,,,,1,1,1,324,666143,3159,350730,48,7,,,,,,,,,
328,30,Man,US,3,,,,,,,,,,,,,,,,,0,14,27,70,0,1,1,0,0,0,0,1,1,1,3,2,3,2,1,4,3,5,4,4,3,4,,,,78,7,1,2,2,6,6,6,1,1,1,7,7,1,1,2,6,6,7,,,,,,,,,,,,,,,,,,,,,,,,0,2,0,0,0,4,10,10,5,1,,,,,,,385,0,210,1409,3,5,3,5,5,4,3,3,4,3,3,4,4,5,3,0.9298245614035088,1605.859649122807,1,57,5,0,0,0,1,1,1,1,0,0,1,0,0,,,,,,,,,,1,1,1,23,29826,143,303,1,1,,,,,,,,,
329,25,Man,US,4,,,,,,,,,,,,,,,,,11,10,29,84,0,3,3,3,3,3,2,1,1,1,2,2,1,1,1,4,4,5,4,4,4,4,,,,72,6,3,3,4,5,5,4,5,2,4,7,6,5,3,3,6,7,6,,,,,,,,,,,,,,,,,,,,,,,,2,2,1,1,0,5,20,10,6,1,,,,,,,1200,180,720,1673,4,4,4,3,5,4,4,3,4,4,3,4,4,4,3,0.9743589743589743,1027.6538461538462,1,78,3,0,0,0,1,1,1,1,0,0,1,0,0,,,,,,,,,,1,2,1,109,260005,1796,94653,3,3,,,,,,,,,
330,20,Man,US,5,,,,,,,,,,,,,,,,,4,20,25,65,0,26,26,2,1,1,0,2,1,3,3,2,3,3,3,4,3,4,4,3,4,3,,,,35,6,2,3,1,3,4,5,1,1,1,7,5,3,1,1,7,7,7,,,,,,,,,,,,,,,,,,,,,,,,1,3,0,1,2,4,30,30,,1,,,,,,,1440,60,480,1037,5,5,4,5,5,5,2,3,1,4,2,4,2,2,2,,,,,3,0,0,0,1,1,0,1,0,0,1,0,0,,,,,,,,,,1,1,1,166,64828,1456,11513,26,9,,,,,,,,,
331,20,Woman,US,3,,,,,,,,,,,,,,,,,7,27,24,69,101,280,280,1,2,3,1,3,3,3,4,3,4,4,3,3,3,4,4,4,3,3,,,,50,6,2,2,2,6,5,3,2,3,3,6,6,2,2,2,5,6,6,,,,,,,,,,,,,,,,,,,,,,,,0,0,-1,2,-1,5,5,5,5,1,,,,,,,3920,375,1810,651,4,5,5,4,5,4,4,3,4,4,4,4,2,2,2,0.9879518072289156,955.9397590361446,1,83,1,0,0,0,1,1,1,1,0,1,1,0,0,,,,187.733,17.98,101,4423.067,246,7,2,516,1,45,82599,1260,44095,34,5,,,,,,,,,
332,30,Woman,US,4,,,,,,,,,,,,,,,,,0,15,25,46,0,13,13,0,0,0,0,2,1,2,2,2,2,3,1,4,4,4,3,4,3,3,,,,86,6,2,5,1,1,1,1,1,1,1,4,2,1,2,1,5,5,6,,,,,,,,,,,,,,,,,,,,,,,,0,-1,0,0,-1,6,30,30,5,1,,,,,,,480,30,210,699,2,3,4,3,4,2,1,2,1,3,1,3,3,2,2,0.9743589743589743,1030.2948717948718,1,78,1,0,0,0,1,1,1,1,0,0,1,0,0,,,,,,,,,,1,1,1,70,226798,350,4388,13,2,,,,,,,,,
333,35,Non-binary,US,2,,,,,,,,,,,,,,,,,,,,58,0,12,12,,,,,,,,,,,,,,,,,,,,,,,50,5,1,2,1,4,4,5,1,1,1,5,4,5,1,3,4,6,5,,,,,,,,,,,,,,,,,,,,,,,,0,1,-1,0,0,3,,,,2,,,,,,,2700,360,1800,1422,,,,,,,,,,,,,,,,0.9574468085106383,785.0585106382979,1,188,7,0,0,0,1,0,1,1,0,0,1,0,0,,,,,,,,,,1,363991,1,1544,443970,502,6175,12,2,,,,,,,,,
334,25,Man,UK,4,,,,,,,,,,,,,,,,,8,25,25,67,0,166,166,2,3,3,0,1,5,3,3,2,4,3,4,3,4,3,5,3,3,4,,,,50,7,1,1,1,5,7,6,1,1,1,6,7,3,2,2,6,6,4,,,,,,,,,,,,,,,,,,,,,,,,0,1,0,0,0,3,60,25,7,1,,,,,,,6000,540,3600,659,4,5,5,5,4,4,3,4,4,3,4,5,2,5,2,0.9787234042553191,771.6914893617021,1,94,2,0,0,0,1,1,1,1,0,0,1,0,0,,,,,,,,,,1,1,1,176,1366473,9619,425909,166,5,,,,,,,,,
335,25,Man,UK,2,,,,,,,,,,,,,,,,,0,10,25,71,0,4,4,0,0,0,0,1,1,1,2,1,1,2,1,3,4,4,4,3,3,4,,,,80,5,3,3,3,3,5,3,4,3,5,5,5,3,3,3,5,5,5,,,,,,,,,,,,,,,,,,,,,,,,1,0,0,2,0,6,30,60,5,1,,,,,,,,,,393,5,2,3,4,4,4,2,3,4,2,2,2,2,3,2,0.9397590361445783,951.144578313253,1,83,2,0,0,0,1,1,1,1,0,0,1,0,0,,,,,,,,,,1,1,1,393,150017,359,6204,4,4,,,,,,,,,
336,20,Man,US,2,,,,,,,,,,,,,,,,,3,10,27,53,0,9,9,1,0,2,0,1,1,1,2,1,2,1,1,4,4,3,4,4,4,4,,,,95,7,1,1,2,3,2,4,1,1,1,7,6,1,2,1,4,4,5,,,,,,,,,,,,,,,,,,,,,,,,0,-1,-1,0,0,7,60,30,,2,,,,,,,3615,450,2130,687,4,5,4,5,5,3,2,4,3,4,4,3,3,3,1,0.9590643274853801,902.7777777777778,1,171,20,0,0,0,1,1,1,1,0,0,1,1,0,,,,,,,,,,1,1,1,114,0,807,12276,9,6,37,15,150,,,,,,
337,25,Man,UK,2,,,,,,,,,,,,,,,,,3,11,28,72,0,99,99,0,2,1,0,2,1,1,1,2,1,2,1,4,4,5,3,5,3,4,,,,91,7,1,2,1,6,1,6,2,1,1,7,7,2,5,3,7,7,6,,,,,,,,,,,,,,,,,,,,,,,,0,0,0,0,0,4,5,5,,2,,,,,,,10200,720,5400,420,1,5,5,5,5,4,1,1,1,4,5,4,1,3,2,0.9795918367346939,719.1530612244898,1,98,7,0,0,0,1,1,1,1,0,0,1,0,0,,,,,,,,,,1,1,1,51,88781,4842,81182,99,8,,,,,,,,,
338,30,Man,UK,2,,,,,,,,,,,,,,,,,0,29,18,61,0,33,33,0,0,0,0,3,4,4,4,2,4,4,4,2,2,3,2,4,3,2,,,,85,7,2,1,1,1,4,2,1,4,1,7,7,2,3,2,5,6,5,,,,,,,,,,,,,,,,,,,,,,,,1,3,0,0,0,2,30,30,,2,,,,,,,2520,180,1260,454,1,3,1,3,4,3,2,1,1,3,3,3,1,3,1,0.973404255319149,784.8936170212766,1,188,7,0,0,0,1,1,1,1,0,0,1,0,0,,,,,,,,,,1,2,1,577,402322,1467,1528,33,3,,,,,,,,,
339,20,Man,UK,2,,,,,,,,,,,,,,,,,4,11,23,69,0,21,21,1,2,1,0,1,2,1,2,1,1,2,1,4,2,4,4,2,3,4,,,,85,7,1,2,1,6,7,7,1,1,1,6,6,1,5,2,3,7,5,,,,,,,,,,,,,,,,,,,,,,,,2,0,-2,2,0,6,20,20,,2,,,,,,,1320,0,720,588,5,4,3,4,4,4,3,1,4,5,5,5,2,1,4,0.9661016949152542,862.4802259887006,1,177,7,0,0,0,1,1,1,1,0,0,1,0,0,,,,,,,,,,1,1,1,149,263107,166,41900,21,9,,,,,,,,,
340,30,Woman,US,3,,,,,,,,,,,,,,,,,10,32,23,84,0,1,1,3,2,2,3,4,4,4,4,4,4,4,4,3,4,3,3,3,4,3,,,,51,6,4,4,5,4,5,5,4,5,4,4,5,5,5,5,5,5,4,,,,,,,,,,,,,,,,,,,,,,,,0,2,1,1,1,6,30,30,,1,,,,,,,,480,,755,3,3,3,4,4,5,4,5,4,4,4,4,4,3,5,0.8947368421052632,1096.1842105263158,1,76,8,0,0,0,1,1,1,1,0,0,1,0,0,,,,,,,,,,1,2,1,593,125286,847,847,1,1,,,,,,,,,
341,35,Woman,UK,1,,,,,,,,,,,,,,,,,2,14,25,82,0,36,36,1,1,0,0,1,1,3,3,1,2,2,1,4,3,4,3,4,4,3,,,,91,7,4,2,1,4,5,4,4,6,4,7,7,1,5,1,7,7,6,,,,,,,,,,,,,,,,,,,,,,,,2,2,0,0,0,5,30,30,5,2,,,,,,,,0,,623,1,5,5,5,5,5,3,3,1,5,4,5,4,4,4,0.8933333333333333,1116.1866666666667,1,75,7,0,0,0,1,1,1,1,0,0,1,0,0,,,,,,,,,,1,1,1,13,37093,623,17323,36,8,,,,,,,,,
342,25,Man,US,1,,,,,,,,,,,,,,,,,4,24,20,68,0,67,67,0,3,1,0,3,3,2,3,4,3,3,3,2,4,4,2,3,2,3,,,,60,7,2,2,2,5,5,6,1,1,1,7,7,1,2,4,4,6,5,,,,,,,,,,,,,,,,,,,,,,,,2,2,1,0,0,2,7,7,5,2,,,,,,,3962,180,1800,1041,2,5,5,5,5,5,2,1,3,3,5,5,2,3,2,0.9825581395348837,904.6976744186046,1,172,7,0,0,0,1,1,1,1,0,0,1,0,0,,,,,,,,,,1,1,1,435,696168,2953,14436,67,10,,,,,,,,,
343,30,Man,UK,1,,,,,,,,,,,,,,,,,11,24,20,56,0,9,9,3,2,3,3,3,3,3,3,3,3,3,3,3,3,4,2,2,3,3,,,,45,5,1,1,2,2,2,2,1,1,1,5,5,5,4,6,5,5,3,,,,,,,,,,,,,,,,,,,,,,,,1,-1,-2,-1,-2,3,30,45,4,2,,,,,,,,,,79710,4,4,4,5,5,4,4,4,4,3,4,4,4,4,4,0.9391891891891891,1117.7364864864865,1,148,9,0,0,0,1,1,1,1,0,0,1,0,0,,,,,,,,,,1,2,1,210,210728,1103,2832,9,1,,,,,,,,,
344,20,Man,UK,1,,,,,,,,,,,,,,,,,8,21,21,62,0,117,117,2,2,3,1,2,1,3,3,2,3,4,3,2,2,3,4,3,3,4,,,,69,6,5,5,2,1,1,1,1,4,1,6,6,2,3,2,5,5,6,,,,,,,,,,,,,,,,,,,,,,,,0,1,-2,-1,-1,6,40,40,2,2,,,,,,,6000,300,2400,597,1,3,3,3,4,2,1,1,1,3,4,4,2,1,1,0.9681528662420382,1027.8726114649683,1,157,7,0,0,0,1,1,1,1,0,0,1,0,0,,,,,,,,,,1,1,1,59,209485,3668,58032,117,9,,,,,,,,,
345,30,Woman,UK,3,,,,,,,,,,,,,,,,,5,21,25,63,47,302,302,1,2,1,1,3,2,2,3,3,3,3,2,4,3,4,3,4,3,4,,,,40,7,1,6,2,4,5,2,1,1,1,6,6,1,3,1,4,6,6,,,,,,,,,,,,,,,,,,,,,,,,-1,0,-1,0,0,6,120,120,5,2,,,,,,,420,80,250,680,5,3,3,5,5,3,3,4,4,2,1,2,1,1,1,0.9184782608695652,803.4836956521739,1,184,10,0,0,0,1,1,1,1,0,1,1,0,0,,,,107.817,15.708,47,3282.933,209,8,2,3,1,384,0,1715,70066,93,10,,,,,,,,,
346,30,Man,US,3,,,,,,,,,,,,,,,,,5,18,21,67,0,0,0,1,1,2,1,3,3,3,2,1,2,2,2,3,3,3,3,3,3,3,,,,50,6,4,2,2,4,5,4,1,2,1,6,6,3,1,2,6,6,6,,,,,,,,,,,,,,,,,,,,,,,,0,0,0,0,0,7,30,60,5,1,,,,,,,1230,330,630,664,3,3,4,3,3,4,4,2,4,3,3,3,3,4,4,0.98,700.22,1,100,3,0,0,0,0,1,1,1,0,0,0,0,0,,,,,,,,,,0,1,1,976,0,,,,,,,,,,,,,
347,25,Man,UK,2,,,,,,,,,,,,,,,,,9,25,19,67,78,318,318,3,3,2,1,3,3,3,3,4,3,3,3,2,3,2,4,2,3,3,,,,70,6,6,3,3,5,5,2,2,1,1,6,6,1,5,1,2,6,6,,,,,,,,,,,,,,,,,,,,,,,,0,1,-2,1,0,2,45,30,,2,,,,,,,4800,600,2700,692,5,5,4,5,5,2,2,2,5,4,5,5,4,4,2,0.9629629629629629,779.8253968253969,1,189,6,0,0,0,1,1,1,1,0,1,1,0,0,,,,124.9,12.873,78,3694.417,287,3,2,1,1,134,319167,1913,51699,31,10,,,,,,,,,
348,35,Man,US,2,,,,,,,,,,,,,,,,,0,8,28,60,0,44,44,0,0,0,0,1,1,1,1,1,1,1,1,4,4,4,4,4,4,4,,,,60,5,2,2,2,2,2,2,5,2,2,5,5,2,2,5,5,5,5,,,,,,,,,,,,,,,,,,,,,,,,0,0,0,0,0,4,20,20,5,2,,,,,,,,,,793,4,4,2,4,5,3,4,5,2,4,4,4,3,4,1,0.9328859060402684,1113.1208053691275,1,149,8,0,0,0,1,1,1,1,0,0,1,0,0,,,,,,,,,,1,1,1,8,283721,1930,279284,44,7,,,,,,,,,
349,30,Man,UK,2,,,,,,,,,,,,,,,,,4,15,23,72,0,99,99,1,3,0,0,1,2,1,3,1,3,3,1,3,3,4,3,4,3,3,,,,70,5,3,3,2,5,5,4,4,2,3,6,5,4,2,2,5,6,6,,,,,,,,,,,,,,,,,,,,,,,,0,-1,0,0,0,3,20,20,4,2,,,,,,,3600,420,1800,568,3,3,4,4,5,4,4,1,3,4,4,5,3,3,2,0.9411764705882353,918.7882352941176,1,170,7,0,0,0,1,1,1,1,0,0,1,0,0,,,,,,,,,,1,1,1,80,78912,2364,27039,99,7,,,,,,,,,
350,30,Man,US,1,,,,,,,,,,,,,,,,,,,,,0,176,176,,,,,,,,,,,,,,,,,,,,,,,,,,,,,,,,,,,,,,,,,,,,,,,,,,,,,,,,,,,,,,,,,,,,,,,,,,1,,,,,,,,,,18,,,,,,,,,,,,,,,,,,,,1,0,0,0,1,0,0,1,0,0,1,0,0,,,,,,,,,,1,2,1,34,1064706,11334,512320,176,2,,,,,,,,,
351,30,Man,US,3,,,,,,,,,,,,,,,,,8,8,21,64,0,36,36,2,2,2,2,1,1,1,1,1,1,1,1,3,3,3,3,3,3,3,,,,50,6,1,1,1,6,6,6,1,1,1,6,6,1,1,1,6,7,6,,,,,,,,,,,,,,,,,,,,,,,,0,0,0,0,0,7,30,30,5,2,,,,,,,2730,450,1485,641,5,4,3,4,5,4,4,5,5,4,4,5,3,3,3,0.9857142857142858,1508.357142857143,1,70,7,0,0,0,1,1,1,1,0,0,1,0,0,,,,,,,,,,1,1,1,183,135445,796,47799,36,5,,,,,,,,,
352,30,Man,US,2,,,,,,,,,,,,,,,,,14,29,24,70,0,1,1,3,4,4,3,4,4,4,3,4,3,3,4,3,3,4,5,3,1,5,,,,56,5,5,2,2,7,5,5,2,1,2,5,3,3,1,1,7,7,7,,,,,,,,,,,,,,,,,,,,,,,,0,0,-2,1,0,4,10,10,,2,,,,,,,12600,900,6300,512,5,4,5,5,2,5,5,5,3,5,5,5,1,3,1,0.9885057471264368,876.1034482758621,1,174,5,0,0,0,1,1,1,1,0,0,1,0,0,,,,,,,,,,1,1,1,43,0,37,37,1,1,,,,,,,,,
353,25,Man,UK,4,,,,,,,,,,,,,,,,,6,12,22,62,0,112,112,2,1,3,0,1,1,1,3,1,1,3,1,3,3,3,4,4,2,3,,,,31,6,1,3,1,1,4,1,4,4,4,4,5,3,5,5,4,4,3,,,,,,,,,,,,,,,,,,,,,,,,0,-1,-2,0,-1,4,90,90,5,2,,,,,,,,20,600,573,5,5,4,4,5,2,2,4,2,2,4,2,3,4,2,0.951048951048951,1171.6153846153845,1,143,7,0,0,0,1,1,1,1,0,1,1,0,0,,,,148.3,16.613,0,1794.25,108,1,2,1,1,23,150792,77,7617,4,2,,,,,,,,,
354,25,Man,US,4,,,,,,,,,,,,,,,,,1,28,20,65,0,20,20,1,0,0,0,3,3,4,4,3,4,4,3,3,2,3,3,3,3,3,,,,40,4,4,3,4,2,3,4,2,2,2,4,4,4,5,3,5,5,5,,,,,,,,,,,,,,,,,,,,,,,,1,1,0,1,1,3,120,60,5,2,,,,,,,900,60,360,879,3,5,5,5,5,4,4,2,3,4,4,4,3,3,2,0.9946236559139785,816.0752688172043,1,186,11,0,0,0,1,1,1,1,0,0,1,0,0,,,,,,,,,,1,1,1,210,142399,917,917,20,1,,,,,,,,,
355,30,Woman,US,3,,,,,,,,,,,,,,,,,1,22,27,68,0,1,1,0,1,0,0,2,2,3,3,3,3,3,3,4,4,4,4,4,3,4,,,,75,6,3,2,2,4,4,4,4,1,1,6,6,4,2,2,6,6,5,,,,,,,,,,,,,,,,,,,,,,,,0,0,-1,0,0,4,15,15,7,2,,,,,,,1800,200,1230,971,4,4,4,3,5,3,3,3,3,4,4,4,3,4,3,0.9715909090909091,865.5113636363636,1,176,7,0,0,0,1,1,1,1,0,0,1,0,0,,,,,,,,,,1,1,1,52,221739,1,9114,1,1,,,,,,,,,
356,25,Woman,US,5,,,,,,,,,,,,,,,,,10,32,21,80,0,4,4,2,3,2,3,4,3,4,4,4,5,4,4,4,3,2,4,3,3,2,,,,50,5,5,5,5,6,6,6,4,1,1,5,3,4,5,6,3,5,5,,,,,,,,,,,,,,,,,,,,,,,,-1,0,-1,0,-1,5,30,30,4,2,,,,,,,6720,600,3360,1061,5,3,4,5,5,3,4,3,3,4,5,4,3,3,3,0.9787234042553191,771.7340425531914,1,94,7,0,0,0,1,1,1,1,0,0,1,0,0,,,,,,,,,,1,1,1,185,18914,50,3532,4,3,,,,,,,,,
357,20,Man,UK,2,,,,,,,,,,,,,,,,,0,8,26,90,0,186,186,0,0,0,0,1,1,1,1,1,1,1,1,4,3,4,3,4,4,4,,,,83,6,3,5,3,5,5,3,6,4,6,5,5,5,6,6,6,6,5,,,,,,,,,,,,,,,,,,,,,,,,1,0,-1,-1,0,6,30,420,5,5,,,,,,,2700,240,750,777,3,4,3,3,4,4,3,2,4,4,4,4,2,1,3,0.9154929577464789,1203.718309859155,1,71,,,,0,1,1,1,0,0,0,1,0,0,,,,,,,,,,1,1,1,104,152806,2286,30899,186,11,,,,,,,,,
358,30,Man,US,3,,,,,,,,,,,,,,,,,6,27,18,75,0,367,367,2,2,1,1,3,4,4,3,3,4,3,3,2,3,4,3,2,2,2,,,,50,6,1,4,4,5,6,5,3,1,4,7,5,1,3,3,5,6,6,,,,,,,,,,,,,,,,,,,,,,,,-1,0,-1,2,0,3,15,15,,3,,,,,,,,90,,882,5,5,3,5,5,3,2,4,3,3,5,5,2,4,4,0.9358974358974359,1035.2307692307693,1,78,27,0,0,0,1,1,1,1,0,0,1,1,0,,,,,,,,,,1,1,1,237,633215,5115,422417,367,17,38,25,229,,,,,,
359,25,Woman,US,1,240,,,,,,,,,,,,,,,,2,25,23,69,111,290,290,0,2,0,0,2,3,4,4,3,3,3,3,3,3,3,4,4,3,3,,,,38,7,1,1,1,6,5,7,1,1,1,7,7,1,1,1,7,7,7,,,,,,,,,,,,,,,,,,,,,,,,0,3,0,1,0,3,,,5,2,,,,,,,840,60,360,1041,1,1,2,5,5,1,1,1,1,5,1,5,3,5,5,0.9137931034482759,1595.1724137931035,1,58,16,0,0,0,1,1,1,1,0,1,0,1,0,,,,279.233,22.74,111,6594.483,290,5,1,,,,,,,,,20,16,175,,,,,,
360,20,Non-binary,US,2,,,,,,,,,,,,,,,,,1,28,24,87,0,243,243,1,0,0,0,2,4,3,3,5,5,4,2,4,2,4,5,3,2,4,,,,40,7,5,5,7,5,6,6,3,1,3,5,7,1,5,3,7,6,5,,,,,,,,,,,,,,,,,,,,,,,,2,0,0,1,0,4,5,5,2,7,,,,,,,350,,120,646,5,5,1,4,5,4,4,5,4,2,4,4,1,2,2,0.9206349206349206,1792.5555555555557,1,126,29,0,0,0,1,1,1,1,0,0,1,1,0,,,,,,,,,,1,1,1,198,167166,1319,31394,243,28,10,20,227,,,,,,
361,25,Woman,US,3,,,,,,,,,,,,,,,,,10,17,29,68,12,294,294,2,3,4,1,2,2,2,3,2,2,2,2,5,4,5,4,4,3,4,,,,90,6,1,2,1,5,6,6,1,2,1,6,6,2,1,2,7,7,6,,,,,,,,,,,,,,,,,,,,,,,,2,1,-1,1,2,5,30,30,5,6,,,,,,,6000,210,2400,760,5,3,4,5,4,4,5,5,3,5,5,5,5,5,5,0.8977272727272727,869.6363636363636,1,88,29,0,0,0,1,1,1,1,0,1,1,1,0,,,,161.033,26.147,12,496.8,19,3,2,1,1,82,54972,5243,21713,275,7,32,21,299,,,,,,
362,20,Man,US,2,,,,,,,,,,,,,,,,,6,13,23,64,0,170,170,2,1,3,0,1,2,1,2,1,2,3,1,4,3,3,3,3,3,4,,,,55,7,2,5,3,2,1,1,2,2,2,6,6,2,5,2,5,5,6,,,,,,,,,,,,,,,,,,,,,,,,-1,0,-1,0,0,5,30,30,,1,,,,,,,2700,120,1200,1218,2,4,3,4,4,3,3,2,2,4,4,2,4,4,2,,,,,15,0,0,0,1,1,0,1,0,0,1,1,0,,,,,,,,,,1,1,1,338,189413,3019,62813,170,22,35,13,194,,,,,,
363,20,Man,US,4,,,,,,,,,,,,,,,,,4,24,27,89,22,129,129,1,2,1,0,3,3,3,3,3,3,3,3,4,4,4,4,4,3,4,,,,88,7,5,5,5,5,6,5,2,2,4,6,7,1,2,6,7,7,7,,,,,,,,,,,,,,,,,,,,,,,,0,0,0,0,0,4,20,10,,5,,,,,,,1500,270,900,624,4,4,5,4,5,5,5,3,5,5,5,5,4,5,5,,,,,5,0,0,0,1,1,0,1,0,1,1,1,0,,,,27.75,8.787,22,254.833,29,2,2,1,1,25,11432,508,9535,100,9,12,4,44,,,,,,
364,30,Man,US,2,,,,,,,,,,,,,,,,,14,38,14,80,0,366,366,3,3,4,4,4,5,5,4,5,5,5,5,1,2,3,1,2,2,3,,,,31,7,3,2,3,5,6,5,1,3,2,6,6,3,5,6,6,5,6,,,,,,,,,,,,,,,,,,,,,,,,1,0,-3,1,-3,3,15,20,,1,,,,,,,3300,450,1245,1639,5,5,4,5,4,4,4,4,5,4,4,3,5,5,3,,,,,1,0,0,0,1,1,0,1,0,0,1,1,0,,,,,,,,,,1,1,1,79,51319,3988,9041,366,20,1,1,10,,,,,,
365,20,Man,US,3,,,,,,,,,,,,,,,,,0,10,32,62,0,26,26,0,0,0,0,1,1,1,2,1,1,2,1,5,4,5,4,5,4,5,,,,83,6,2,3,3,1,3,3,1,2,1,7,6,3,2,3,5,5,6,,,,,,,,,,,,,,,,,,,,,,,,0,0,-1,0,0,7,5,10,4,2,,,,,,,270,30,,915,4,5,3,4,5,2,2,4,4,4,4,4,4,4,3,,,,,7,0,0,0,1,1,0,1,0,0,1,1,0,,,,,,,,,,1,1,1,25,47567,635,27643,26,2,7,7,88,,,,,,
